time,pos_x,pos_y,pos_z,yaw,vel_x,vel_y,vel_z,vel_yaw,acc_x,acc_y,acc_z,acc_yaw
0.0,-2.9999999999999987,-2.999999999999999,1.4999999999999996,0.0,0.0,0.0,0.0,0.0,0.0,0.0,0.0,0.0
0.02005730659025788,-2.99999804922961,-2.9999847169947667,1.4999982962411755,2.9300760069112005e-06,0.0002912856875071143,0.0022828126880666574,-0.00025457431208848427,0.0004372405847848323,0.028863082827422972,0.22635693066883888,-0.025259855887935487,0.043270763423609936
0.04011461318051576,-2.99998460583503,-2.999879272803677,1.4999865277280768,2.3078666567787953e-05,0.0011440015250686736,0.008977959944829127,-0.0010025566194041206,0.0017128723738487125,0.05614789745103905,0.4412662690495003,-0.04934406935902713,0.08384780238286717
0.060171919770773644,-2.999948754913921,-2.9995976971289404,1.4999550601213478,7.667832365732559e-05,0.0025268750953707517,0.019858458655342238,-0.002220630263799139,0.0037735417952023268,0.08188373854812095,0.6449248882246958,-0.07227225943264572,0.12178320860754582
0.08022922636103152,-2.999880201153354,-2.999058519960452,1.499894721490992,0.0001789049461563882,0.004409219874664663,0.03470126316633303,-0.0038858709675227247,0.006566937111451852,0.10609990079589163,0.8375296612771232,-0.09406404512815313,0.15712907382742025
0.1002865329512894,-2.9997692571119416,-2.998184692826553,1.499796794468763,0.00034389861654391784,0.006760935232727888,0.05328726528616255,-0.005975746833201033,0.01004178841979894,0.12882567887160604,1.0192774612894797,-0.11473904546491481,0.18993748977226454
0.12034383954154729,-2.999606831501963,-2.9969035100448043,1.4996530084005595,0.0005847844375888448,0.009552506432896044,0.07540129428486142,-0.008468118343856286,0.014147867652040725,0.15009036745251558,1.1903651613444826,-0.13431687946230514,0.22026054817185284
0.14040114613180515,-2.9993844174714956,-2.995146529972745,1.4994555314988145,0.0009136933690419969,0.012755004632044672,0.10083211689411067,-0.011341238362893446,0.018835988574569845,0.16992326121585205,1.350989634524824,-0.15281716613967883,0.24815034075595935
0.16045845272206305,-2.999094080886549,-2.992849496258671,1.4991969629948911,0.001341783064328009,0.01634008688059458,0.1293724373072414,-0.014573752134106,0.024058006788374386,0.18835365483886868,1.5013477539132012,-0.17025952451641027,0.27365895925435846
0.18051575931232094,-2.998728448613182,-2.9899522590923886,1.4988703252914706,0.0018792587072372332,0.02027999612251139,0.1608188971792422,-0.018144697281674393,0.029766819729037955,0.20541084299880624,1.6416363925923207,-0.18666357361186225,0.29683849539682405
0.2005730659025788,-2.9982806967996414,-2.986398696455989,1.498469056114947,0.0025353938486176474,0.024547561195307762,0.19497207562675703,-0.022033503810167585,0.035916366666739606,0.2211241203729072,1.7720524236448785,-0.20204893244540112,0.3177410409131304
0.22063037249283668,-2.9977445391584885,-2.9821366353746175,1.4979870006678202,0.003318551243066768,0.029116196830037598,0.2316364892280794,-0.026219994104540394,0.042461628706253925,0.2355227816384229,1.8927927201535895,-0.21643522003639581,0.33641868753305193
0.24068767908309457,-2.9971142152487285,-2.977117773167233,1.4974184037810863,0.004236203685623558,0.03395990365130229,0.2706205920231595,-0.030684382930135472,0.049358628786950944,0.2486361214725923,2.0040541552011373,-0.22984205540420827,0.3529235269863625
0.26074498567335247,-2.9963844787579372,-2.9712975986973804,1.4967579020666306,0.005294954848460328,0.03905326817724719,0.31173677551360107,-0.03540727743268313,0.05656443168279617,0.26049343455266505,2.106033601870237,-0.24228905756820837,0.36730765100283636
0.2808022922636103,-2.9955505857843945,-2.9646353136239556,1.496000516069621,0.006500560117574667,0.044371462819564174,0.35480136866266454,-0.040369677138300836,0.06403714400235067,0.27112401555588367,2.198927933243584,-0.2537958455477607,0.3796231513122481
0.3008595988538682,-2.9946082831192093,-2.957093753651975,1.4951416424208972,0.00785794742948133,0.04989024588348621,0.3996346378952585,-0.045552973953493364,0.07173591418877087,0.28055715915949414,2.2829340224038814,-0.2643820383622324,0.3899221196443715
0.3209169054441261,-2.993553796528452,-2.9486393097833377,1.4941770459893673,0.009371238107904162,0.055585961567794155,0.44606078709795055,-0.050938952165151895,0.07962093251980877,0.2888221600407417,2.358248742433834,-0.274067255030989,0.3982566477289809
0.340974212034384,-2.9923838190352785,-2.939241849567594,1.4931028520343956,0.011043767700467987,0.061435539964815315,0.4939079576189613,-0.05650978844055737,0.08765343110781183,0.2959483128768644,2.425068966416135,-0.28287111457339376,0.40467882729585036
0.3610315186246419,-2.9910954992020664,-2.928874638352715,1.4919155383581975,0.012878106815390557,0.06741649706041679,0.5430082282681633,-0.062248051827374855,0.09579568389972301,0.301964912345119,2.483591567433494,-0.29081323600882003,0.409240750074754
0.38108882521489973,-2.989686429412541,-2.917514260535861,1.4906119274582332,0.01487608195817442,0.07350693473401505,0.5931976153170854,-0.0681367037536589,0.10401100667708073,0.3069012531227383,2.5340134185686076,-0.2979132383566262,0.4119945077954664
0.4011461318051576,-2.988154634153898,-2.905140540814137,1.4891891786795939,0.017038796368298862,0.07968554075857046,0.6443160724989108,-0.07415909802785162,0.11226375705601892,0.31078662988697525,2.5765313929041787,-0.30419074063618345,0.4129921921877613
0.4212034383954155,-2.986498558298946,-2.8917364654353763,1.4876447803674024,0.019366650855911775,0.08593158880058652,0.6962074910084738,-0.08029898083878054,0.12051933448726689,0.3136503373150711,2.6113423635229096,-0.3096653618668566,0.41228589498141316
0.44126074498567336,-2.984717055388224,-2.8772881034488953,1.485976542019199,0.021859364638521644,0.09222493842011373,0.7487196995022661,-0.08654049075566228,0.12874418025614964,0.31552167008427257,2.6386432035075016,-0.3143567210680119,0.40992770790619626
0.46131805157593125,-2.9828093759121335,-2.861784527956262,1.484182586437335,0.02451599617768934,0.09854603507074594,0.8017044640984307,-0.09286815872809977,0.13690577748258748,0.3164299228718235,2.6586307859406553,-0.3182844372590153,0.4059697226918844
0.48137535816618915,-2.980775155593071,-2.845217737362068,1.482261341881367,0.027334964015720154,0.10487591009962421,0.855017488376768,-0.09926690808608446,0.1449726511210963,0.3164043903549669,2.671501983905074,-0.3214681294592327,0.40046403106825224
0.501432664756447,-2.9786144036675544,-2.827582576624692,1.480211534220448,0.030314067612355607,0.11119618074743118,0.9085184133787276,-0.10572205453999341,0.15291436796078725,0.315474367210953,2.6774536704834575,-0.32392741668803193,0.3934627247650735
0.5214899713467049,-2.9763274911683517,-2.8088766585070664,1.4780321790857185,0.03345050818146544,0.11748905014839603,0.9620708176074171,-0.11221930618059198,0.16070153662536737,0.31366914811701996,2.6766827187585074,-0.32568191796477725,0.3850178955121228
0.5415472779369628,-2.97391513920661,-2.789100284827443,1.4757225740227005,0.03674090952773945,0.1237373073302939,1.0155422170275967,-0.11874476347903294,0.1683058075731389,0.3110180277504144,2.6693860018129234,-0.3267512523088347,0.37518163503917384
0.5616045845272206,-2.97137840725399,-2.7682563677101677,1.4732822906436907,0.040181338883379464,0.12992432721444314,1.0688040650656814,-0.12528491928685662,0.17569987309699955,0.3075503007883853,2.6557603927294138,-0.32715503873957297,0.36400603507600154
0.5816618911174786,-2.9687186814247837,-2.746350350836434,1.4707111667801467,0.04376732774479118,0.1360340706157082,1.1217317526097383,-0.1318266588359896,0.18285746732444255,0.30329526190817435,2.6360027645906725,-0.32691289627635656,0.35154318735237916
0.6017191977077364,-2.9659376627580563,-2.7233901306950643,1.4680092986350886,0.047493892709276175,0.14205108424249718,1.1742046080094914,-0.13835725973874682,0.1897533662175569,0.29828220578702647,2.6103099904794047,-0.3260444439385517,0.3378451835980816
0.6217765042979944,-2.9630373554997655,-2.699385977833266,1.4651770329354836,0.05135555631172371,0.1479605006967642,1.2261058970763161,-0.1448643919878302,0.19636338757302652,0.2925404271021861,2.5788789434783133,-0.3245693007455248,0.32296411554288296
0.6418338108882522,-2.9600200553848977,-2.6743504581074022,1.4622149590846416,0.05534636786130266,0.15374803847400803,1.277322823083243,-0.1513361179563287,0.20266439102213135,0.28609922053089676,2.541906496670094,-0.3225070857166411,0.30695207491655724
0.66189111747851,-2.9568883379195916,-2.6482983539337632,1.4591239013146073,0.059459924278153595,0.15940000196327236,1.3277465267649575,-0.15776089239771926,0.20863427803074655,0.2789878807504069,2.499589523137455,-0.31987741787126844,0.28986115344887864
0.681948424068768,-2.9536450466632673,-2.6212465855393208,1.4559049108385498,0.06368939093008029,0.164903281447145,1.3772720863177967,-0.16412756244586546,0.21425199189934266,0.27123570243795947,2.4521248959630935,-0.3166999162287727,0.27174344286962115
0.7020057306590258,-2.950293281510766,-2.5932141322125153,1.4525592580031617,0.06802752246924214,0.1702453531017596,1.4257985173997543,-0.17042536761501859,0.21949751776298607,0.2628719802707977,2.3997094882297136,-0.3129941998085186,0.2526510349085598
0.7220630372492838,-2.946836386974459,-2.564221953553997,1.4490884244410402,0.07246668366884565,0.17541427899679385,1.4732287731304763,-0.17664393979981702,0.22435188259133818,0.25392600892616857,2.342540173020012,-0.3087798876298735,0.2326360212954675
0.7421203438395416,-2.9432779404664013,-2.5342929107274195,1.4454940952230928,0.07699887025983666,0.18039870709547134,1.519469744091264,-0.1827733032752867,0.22879715518865626,0.24442708308131755,2.2808138234166977,-0.3040765987122044,0.21175049376011948
0.7621776504297995,-2.9396217405804372,-2.503451687710185,1.4417781510109176,0.0816157297675919,0.18518787125455982,1.5644322583250716,-0.18880387469684073,0.23281644619379313,0.23440449741348668,2.2147273125024673,-0.29890395207487575,0.1900465440322896
0.7822349570200574,-2.9358717953743456,-2.4717247125442237,1.4379426602092025,0.08630858234861134,0.18977159122437248,1.608031081336508,-0.19472646310027972,0.23639390808019656,0.22388754659992194,2.1444775133600213,-0.2932815667372546,0.16757626384175195
0.8022922636103152,-2.9320323106519637,-2.439140078586757,1.433989871118115,0.0910684416272097,0.19414027264876665,1.6501849160918354,-0.2005322699017913,0.23951473515591026,0.21290552531787066,2.070261299072067,-0.2872290617187081,0.14439174491828097
0.8223495702005731,-2.9281076782453126,-2.4057274657610623,1.429922204085695,0.09588603553220863,0.19828490706514568,1.6908164030189718,-0.20621288889795092,0.24216516356357332,0.2014877282445744,1.9922755427212993,-0.28076605603860094,0.12054507899165039
0.842406876790831,-2.924102464296737,-2.371518061807248,1.4257422436602485,0.10075182713362843,0.20219707190445668,1.7298521200074872,-0.21176030626572084,0.2443324712804204,0.18966345005727892,1.9107171173904236,-0.2739121687163001,0.09608835779163494
0.8624641833810889,-2.9200213975410167,-2.3365444835330034,1.4214527307427354,0.10565603547938004,0.20586893049119137,1.7672225824086054,-0.21716690056245053,0.24600497811828137,0.17746198543322889,1.825782896162139,-0.26668701877117085,0.07107367304800816
0.8825214899713467,-2.915869357587518,-2.300840698064391,1.4170565547391685,0.11058865643195717,0.20929323204338912,1.8028622430352084,-0.2224254427258779,0.2471720457235819,0.16491262904966852,1.737669752119149,-0.25911022522258054,0.045553116490544915
0.9025787965616047,-2.9116513632023002,-2.2644419440965873,1.4125567457129975,0.11553948350512765,0.21246331167263022,1.836709492161826,-0.2275290960741267,0.2478240775773428,0.1520446755838445,1.6465745583441556,-0.251201407089895,0.019578779849019123
0.9226361031518625,-2.9073725605902636,-2.227384653144668,1.40795646653751,0.12049812870062593,0.2153730903840425,1.8687066575246454,-0.23247141630570867,0.24795251899518062,0.13888741971300034,1.5526941879198584,-0.24298018339248018,-0.006797245146794889
0.9426934097421205,-2.903038211677265,-2.189706370794366,1.4032590050482163,0.12545404334484467,0.21801707507629808,1.898800004321509,-0.2372463514995234,0.24754985712730757,0.12547015611438272,1.4562255139289606,-0.23446617314970342,-0.033522866767123224
0.9627507163323783,-2.8986536823922555,-2.1514456779528413,1.3984677661952472,0.13039653892552674,0.22039035854161404,1.9269397352119109,-0.241848242114857,0.24660962095853073,0.11182217946523298,1.3573654094541607,-0.22567899538092917,-0.06054599328219175
0.9828080229226361,-2.894224430949407,-2.1126421120994503,1.3935862641957435,0.13531480792845715,0.2224886194657525,1.9530799903170017,-0.24627182099138323,0.24512638130825348,0.09797278444279778,1.2563107475781634,-0.21663826910552453,-0.08781453296222604
1.002865329512894,-2.889755996130237,-2.0733360885365033,1.3886181146862462,0.14019794467415472,0.22430812242801967,1.9771788472195815,-0.25051221334916296,0.24309575083047388,0.08395126572432421,1.1532584013836702,-0.2073636133428559,-0.11527639407745158
1.022922636103152,-2.885253985565746,-2.0335688216400456,1.3835670268750948,0.14503496615456457,0.22584571790126673,1.9991983209641098,-0.25456493678864484,0.24051438401378603,0.06978691798705139,1.0484052439533795,-0.19787464711228864,-0.14287948489809482
1.0429799426934099,-2.880724064018535,-1.9933822461106097,1.378436795694812,0.1498148328697492,0.22709884225189136,2.019104364056696,-0.2584259012906644,0.23737997718137904,0.055509035908229976,0.9419481483699946,-0.1881909894331899,-0.17057171369438145
1.0630372492836677,-2.876171941664953,-1.9528189382239973,1.3732312939545053,0.15452646966458133,0.22806551773983386,2.0368668664651066,-0.2620914092164444,0.23369126849103827,0.04114691416510308,0.8340839877162212,-0.17833225932492636,-0.19830098873653662
1.0830945558739256,-2.8716033623772024,-1.9119220370820287,1.3679544644922477,0.15915878656543492,0.22874435251858127,2.0524596556187595,-0.26555815530759586,0.2294480379351436,0.026729847434913356,0.725009635074753,-0.1683180758068621,-0.22601521829478702
1.1031518624641834,-2.867024092005489,-1.8707351658633287,1.3626103123274809,0.16370069961687778,0.22913454063516503,2.06586049640873,-0.26882322668611636,0.22465110734067123,0.012287130394906143,0.6149219635282956,-0.15816805789836463,-0.25366231063935807
1.1232091690544412,-2.862439906660138,-1.8293023530740777,1.3572028968134005,0.16814115171836297,0.22923586203016066,2.0770510911877436,-0.27188410285439,0.2193023403691924,-0.002151942277670127,0.5040178461595514,-0.14790182461880108,-0.28119017404047564
1.1432664756446993,-2.857856580993731,-1.7876679537987876,1.351736323789351,0.1724691334609211,0.2290486825376894,2.0860170797701816,-0.2747386556951902,0.21340464251687374,-0.016558075905575897,0.3924941560512193,-0.13753899498753563,-0.3085467167683654
1.1633237822349571,-2.853279876483229,-1.7458765709510664,1.3462147377332179,0.17667370396385199,0.2285739538854168,2.0927480394320797,-0.2773851494716759,0.20696196111447773,-0.030901975811562288,0.2805477662860029,-0.12709918802393583,-0.33567984709325327
1.183381088825215,-2.8487155297121034,-1.7039729765243818,1.340642313913818,0.18074401171141657,0.22781321369455454,2.097237484911127,-0.2798222408273945,0.1999792853273622,-0.0451543473183853,0.1683755499466042,-0.1166020227473683,-0.362537473285365
1.2034383954154728,-2.84416924065247,-1.662002032842835,1.3350232505432962,0.18466931538952921,0.2267685854798578,2.0994828684066675,-0.28204897878628,0.19246264615548003,-0.059285895748802275,0.056174380115720624,-0.1060671181771976,-0.3890675036149269
1.2234957020057307,-2.839646660947211,-1.6200086138119227,1.3293617609295125,0.1884390047224489,0.2254427786496267,2.0994855795796976,-0.28406480475265417,0.18441911643338055,-0.0732673264255661,-0.05585887012394092,-0.09551409333279148,-0.4152178463521638
1.2435530085959887,-2.835153382192108,-1.5780375261693045,1.3236620656284377,0.1920426213094718,0.22383908850570733,2.0972509455528687,-0.2858695525112257,0.17585681083020754,-0.08706934467143279,-0.16752732768968137,-0.08496256723351558,-0.4409364097673023
1.2636103151862466,-2.83069492421797,-1.5361334307355698,1.3179283845965437,0.19546987946162284,0.22196139624349032,2.0927882309104877,-0.28746344822709147,0.16678488584970094,-0.10066265580915834,-0.27863411949880024,-0.07443215889873567,-0.46617110213056767
1.2836676217765044,-2.826276723372763,-1.4943407636650072,1.312164929343198,0.1987106870383477,0.21981416895191064,2.086110637698513,-0.2888471104457343,0.15721353983019581,-0.1140179651614961,-0.3889823724685938,-0.06394248734781893,-0.4908698317121863
1.3037249283667622,-2.821904120803738,-1.4527036576963677,1.3063758950830526,0.20175516628420476,0.21740245961344806,2.0772353054245576,-0.29002155009302577,0.14715401294462294,-0.1271059780512016,-0.4983752135163608,-0.053513171600130915,-0.5149805067823832
1.32378223495702,-2.8175823507395625,-1.4112658634036344,1.3005654528884398,0.2045936746655569,0.21473190710412848,2.0661833110578898,-0.29098817047522363,0.13661858720050848,-0.13989739980103266,-0.6066157695594039,-0.04316383067503693,-0.5384510356113852
1.3438395415472781,-2.813316528772446,-1.3700706704467882,1.294737741841762,0.20721682570726352,0.21180873619352103,2.0529796690294306,-0.2917487672789735,0.12562058643997387,-0.1523629357337417,-0.7135071675150171,-0.03291408359190484,-0.5612293264694175
1.363896848137536,-2.8091116401402747,-1.329160828822576,1.2888968611878857,0.20961550982937238,0.20863975754474096,2.0376533312317555,-0.29230552857130865,0.11417437633973655,-0.1644732911720843,-0.8188525343004995,-0.022783549370099965,-0.5832632876267059
1.3839541547277938,-2.804972528008732,-1.288578470115276,1.283046862486532,0.21178091518381156,0.20523236771444808,2.020237187019096,-0.29266103479964867,0.10229536441110909,-0.17619917143881558,-0.9224549968331514,-0.012791847028989167,-0.6045008273534764
1.4040114613180517,-2.8009038817534373,-1.2483650287474648,1.27719174176467,0.2137045484910814,0.20159454915284725,2.000768063207334,-0.2928182587918019,0.08999999999999955,-0.18751128185669197,-1.0241176820302695,-0.0029585955879378734,-0.6248898539199549
1.4240687679083095,-2.7969102252420672,-1.2085611632307844,1.2713354316689087,0.21537825587694623,0.19773487020368785,1.979286724074007,-0.29278056575596245,0.07730577428691138,-0.19838032774846814,-1.1236437168091526,0.006696585933687826,-0.6443782755963665
1.4441260744985676,-2.7929959051164897,-1.1692066774167118,1.26548179361789,0.21679424370912653,0.19366248510426454,1.9558378713583073,-0.29255171328071305,0.06423122028694381,-0.20877701443689878,-1.2208362280870997,0.016154078516521286,-0.6629140006529377
1.4641833810888254,-2.789165079074891,-1.1303404417473208,1.259634609954679,0.21794509943399062,0.18938713398541562,1.9304701442610808,-0.29213585133502273,0.05079591284979129,-0.21867204724473943,-1.3154983427814095,0.02539426314119575,-0.6804449373598945
1.4842406876790832,-2.7854217041539058,-1.0920003145060537,1.2537975760991587,0.21882381241324678,0.1849191428715269,1.9032361194448266,-0.2915375222682487,0.037020468659743934,-0.22803613149474544,-1.4074331878093798,0.034397520788346125,-0.696918993987462
1.504297994269341,-2.781769525010743,-1.0542230630684846,1.2479742927004203,0.21942379476063487,0.18026942368052667,1.8741923110336987,-0.2907616608101351,0.022926546235687087,-0.23683997250967037,-1.4964438900883104,0.04314423243860532,-0.7122840788058667
1.524355300859599,-2.7782120622053204,-1.0170442851530903,1.2421682577891566,0.21973890217861858,0.17544947422388946,1.843399170613506,-0.28981359407081286,0.008536845931102072,-0.24505427561227044,-1.5823335765354976,0.05161477907260714,-0.7264881000853342
1.5444126074498568,-2.7747526004823904,-0.9804983300720134,1.2363828589300547,0.21976345479507714,0.17047137820663227,1.810921087231708,-0.28869904154080117,-0.006124890065934807,-0.252649746125303,-1.6649053740682427,0.05978954167098682,-0.7394789660960899
1.5644699140401148,-2.7713941770536676,-0.9446182199818303,1.2306213653741855,0.21949225799999716,0.1653478052273223,1.7768263873974235,-0.28742411509100685,-0.02103387773275163,-0.2595970893715205,-1.743962409603841,0.06764890121437622,-0.75120458510836
1.5845272206303727,-2.768139569879962,-0.9094355711343194,1.2248869202113997,0.21892062328216483,0.16009201077806567,1.7411873350814204,-0.2859953189727219,-0.03616429121208077,-0.2658670106736789,-1.8193078100595927,0.07517323868341025,-0.7616128653923702
1.6045845272206305,-2.7649912859533052,-0.874980515127227,1.2191825325227177,0.2180443890658575,0.1547178362445174,1.7040801317161236,-0.2844195498176284,-0.051489262812059525,-0.2714302153545336,-1.8907447023527963,0.08234293505872231,-0.7706517152183463
1.6246418338108883,-2.7619515495790807,-0.841281620155034,1.2135110695327218,0.21685994154753574,0.149239708905875,1.6655849161956104,-0.28270409663779394,-0.06698088300622929,-0.27625740873683946,-1.9580762134007512,0.08913837132094621,-0.7782690428565144
1.6446991404011462,-2.759022290658151,-0.8083658122597235,1.2078752487619502,0.21536423553253525,0.14367264193488172,1.6257857648756129,-0.2808566408256734,-0.08261020043353633,-0.2803192961433518,-2.0211054701207543,0.0955399284507163,-0.7844127565770997
1.6647564469914042,-2.756205132968991,-0.7762582965815479,1.202277630179287,0.21355481527175887,0.1380322343978282,1.5847706915735176,-0.27888525615411075,-0.09834722189833109,-0.28358658289682703,-2.0796355994301043,0.1015279874286657,-0.7890307646503282
1.684813753581662,-2.7535013824498114,-0.7449824786097947,1.196720608354356,0.21142983529836823,0.13233467125454412,1.5426316475683641,-0.2767984087763349,-0.11416091237036857,-0.2860299743200184,-2.133469728246101,0.10708292923542861,-0.7920709753464265
1.70487106017192,-2.7509120154806936,-0.714559885433554,1.1912064046099131,0.208988081264476,0.1265967233584102,1.4994645216008473,-0.2746049572259638,-0.13001919498480874,-0.28762017573568194,-2.18241098348604,0.11218513485163885,-0.7934812969356191
1.7249283667621778,-2.748437667165713,-0.6850100869924856,1.185737059174237,0.2062289907778373,0.12083574745634929,1.4553691398733144,-0.2723141524170022,-0.1458889510422155,-0.28832789246657303,-2.226262492067223,0.1168149852579297,-0.7932096376881328
1.7449856733524356,-2.7460786196150746,-0.6563506173275864,1.1803144233335234,0.20315267423854239,0.11506968618882718,1.4104492660497678,-0.26993563764384176,-0.16173602000855763,-0.2881238298354459,-2.264827380906948,0.12095286143493525,-0.7912039058741935
1.7650429799426934,-2.7438347902272353,-0.6285968958319557,1.1749401515842752,0.19975993567570755,0.10931706808985986,1.3648126012558646,-0.2674794485812625,-0.17752519951520834,-0.28697869316505686,-2.297908776922512,0.12457914436328982,-0.7874120097640263
1.7851002865329515,-2.741705719971038,-0.6017621485015634,1.1696156937856967,0.19605229358416792,0.1035970075870023,1.3185707840789131,-0.2649560132844303,-0.19322024535894555,-0.2848631877781624,-2.325309807031215,0.12767421502362658,-0.781781857627857
1.8051575931232093,-2.739690561667839,-0.5758573291860175,1.1643422873120848,0.19203200176116908,0.09792920500135782,1.2718393905678789,-0.2623761521889,-0.20878387150195094,-0.2817480189975129,-2.3468335981503534,0.1302184543965792,-0.7742613577359121
1.8252148997134672,-2.7377880682736366,-0.5508910408393295,1.1591209492052217,0.18770207014305873,0.09233394654757454,1.2247379342333802,-0.25975107811061204,-0.22417775007181165,-0.27760389214586967,-2.3622832771972275,0.13219224346278213,-0.7647984183584169
1.845272206303725,-2.735996581161201,-0.5268694567706818,1.1539524683267657,0.18306628564197885,0.08683210433384492,1.1773898660476898,-0.2570923962458961,-0.23936251136151876,-0.27240151254598244,-2.371461971089136,0.13357596320286858,-0.7533409477655975
1.8653295128939829,-2.734314018402203,-0.5037962418951951,1.148837397510646,0.17812923298255756,0.08144513636190487,1.129922574444733,-0.254412104171467,-0.2542977438294682,-0.2661115855206091,-2.3741728067433763,0.1343499945974722,-0.7398368542276795
1.885386819484241,-2.7327378630493424,-0.48167247398469526,1.1437760457154533,0.17289631553860105,0.07619508652703821,1.0824673853200906,-0.25172259184442936,-0.26894199409946007,-0.2587048163925052,-2.3702189110772474,0.13449471862722762,-0.7242340460148888
1.9054441260744988,-2.73126515141848,-0.46049656491847935,1.138768470176832,0.16737377616978538,0.07110458461807179,1.035159562030997,-0.24903664160227323,-0.2832527669606994,-0.25015191048442476,-2.359403411008047,0.1339905162727676,-0.7064804313974513
1.9255014326647566,-2.729892461370763,-0.4402641819340837,1.1338144685598728,0.1615687180583485,0.06619684631737632,0.9881383053963401,-0.24636742816287616,-0.2971865253677955,-0.2404235731191231,-2.3415294334530743,0.13281776851472693,-0.6865239186455925
1.9455587392550144,-2.7286159005947557,-0.4209681688780505,1.1289135711115057,0.15548912554578223,0.061495673200870016,0.9415467536966633,-0.24372851862450373,-0.310698690440762,-0.22949050961935802,-2.3164001053296284,0.1309568563337391,-0.6643124160295384
1.9656160458452723,-2.727431094888569,-0.40259846745669414,1.1240650328128905,0.14914388496952397,0.05702545273801363,0.8955319826741628,-0.2411338724658083,-0.3237436414650172,-0.21732342530787996,-2.2838185535550073,0.12838816071043735,-0.639793831819515
1.9856733524355303,-2.7263331764419894,-0.3851420384868687,1.119267825531811,0.14254280549964868,0.052811158291814486,0.8502450055326889,-0.23859784154583075,-0.33627471589138425,-0.20389302550744715,-2.2435879050465086,0.1250920626254557,-0.6129160742857479
2.005730659025788,-2.7253167721186076,-0.36858278314673454,1.1145206301750652,0.1356966399755609,0.04887834911882294,0.8058407729377463,-0.23613517010399687,-0.3482442093360903,-0.18917001554081603,-2.195511286721432,0.12104894305942882,-0.5836270516984627
2.025787965616046,-2.7243759917379466,-0.3529014642265257,1.1098218288408601,0.12861710574268648,0.045253170369137674,0.7624781730164937,-0.2337609947601229,-0.3596033755807675,-0.17312510073073994,-2.1393918254970763,0.11623918299299096,-0.5518746723278858
2.045845272206304,-2.723504416357594,-0.3380756273793163,1.1051694969712016,0.12131690548916468,0.041962353086398174,0.7203200313577434,-0.23149084451440927,-0.37030242657245194,-0.15572898639997268,-2.0750326482907377,0.1106431634067726,-0.5176068444442425
2.0659025787965617,-2.722695086555328,-0.3240795223717877,1.1005613955042879,0.11380974808253996,0.03903321420779271,0.679533111011962,-0.22934064074744642,-0.38029053242358485,-0.13695237787126935,-2.002236882019717,0.10424126528141064,-0.4807714763177588
2.0859598853868198,-2.7219404907112486,-0.3108840243349952,1.0959949630269012,0.10611036940645377,0.03649365656404946,0.6402881124912702,-0.22732669722020982,-0.3895158214120117,-0.11676598046738906,-1.9208076536013117,0.0970138695975371,-0.4413164762186603
2.1060171919770774,-2.7212325532899038,-0.2984565550151358,1.0914673079268011,0.09823455319733698,0.034372168879445386,0.6027596737694431,-0.22546572007406374,-0.3979253799809821,-0.09514049951108561,-1.830548089952821,0.08894135733578912,-0.3991897524171731
2.1260744985673354,-2.7205626231224227,-0.2867610040243137,1.0869752005451154,0.09019915188110104,0.03269782577180336,0.5671263702819093,-0.22377480783075987,-0.40546525273915085,-0.07204664032511054,-1.731261317991543,0.08000410947679626,-0.3543392131835231
2.1461318051575935,-2.7199214616886414,-0.27575765009130837,1.0825150653287332,0.08202210740983044,0.03150028775248748,0.5335707149257514,-0.2222714513924362,-0.41208044246057673,-0.047455108232221654,-1.6227504646347752,0.070182507001193,-0.3067127667879358
2.166189111747851,-2.719299231399233,-0.26540308231234105,1.0780829729826968,0.0737224720984744,0.03080980122640864,0.5022791580597061,-0.22097353404161862,-0.4177149100847235,-0.021336608555177605,-1.5048186567998183,0.059456930889616455,-0.2562583215006371
2.186246418338109,-2.718685483877839,-0.2556501214018416,1.0736746326225948,0.0653204294615388,0.030657198492023197,0.47344208750416455,-0.21989933144122026,-0.422311574716459,0.006338153383270928,-1.377269021403969,0.04780776212269755,-0.2029237855918531
2.206303724928367,-2.718069148243193,-0.24644774094321567,1.0692853839269523,0.056837315049778174,0.031073897741330736,0.44725382854117135,-0.21906751163454186,-0.4258123136260558,0.03559847226036705,-1.2399046853645268,0.035215381681071634,-0.14665706733180894
2.226361031518625,-2.7174385193912562,-0.23774098863961116,1.0649101892896258,0.04829563728688741,0.03209190305987775,0.42391264391442535,-0.21849713504527166,-0.4281579622491912,0.0664736427533601,-1.0925287755987865,0.021660170545369173,-0.08740607499073061
2.2464183381088825,-2.7167812462773413,-0.229470907564686,1.0605436259721936,0.03971909830619417,0.03374380442675273,0.40362073382927954,-0.2182076544774835,-0.42928831418694635,0.09899295953948606,-0.9349444190240528,0.007122509696228629,-0.02511871683884448
2.2664756446991405,-2.7160843201982448,-0.22157445741337412,1.0561798782563492,0.031132614787350063,0.03606277771459221,0.38658423595274105,-0.2182189151156408,-0.4291421212058077,0.13318571729600137,-0.7669547425576202,-0.008417219885720861,0.04025709885362372
2.2865329512893986,-2.715334063074375,-0.21398443575265275,1.0518127295962918,0.02256233879302309,0.03908258468957576,0.37301322541347076,-0.218551154524593,-0.42765709323766576,0.16908121070014204,-0.5883628731167889,-0.024978637219841726,0.10877346381644859
2.306590257879656,-2.714516115731881,-0.20662939927230953,1.0474355547711207,0.014035678605589371,0.04283757301143076,0.3631217148017837,-0.21922500264957823,-0.4247698983798156,0.20670873442915116,-0.3989719376188565,-0.042581361325502165,0.18048246977940408
2.3266475644699143,-2.713615426184782,-0.1994335850357092,1.0430413120372266,0.005581319563825075,0.04736267623342438,0.35712765416964865,-0.2202614818162196,-0.4204161628949569,0.24609758316027808,-0.1985850629811221,-0.06124501122206549,0.2554362084722641
2.346704871060172,-2.712615760697323,-0.19231722961554595,1.0386227044441383,-0.0027709713446883474,0.05290774337880072,0.3550734601925187,-0.2216059083888275,-0.41462786206126745,0.35132443625506193,-0.04110028232535271,-0.058174801805263375,0.30442092166670937
2.36676217765043,-2.711472071491814,-0.18522050773615817,1.0341821207364192,-0.011003187179593511,0.06221493912873976,0.3547704318069161,-0.2222955715037428,-0.4086202712926553,0.5774563362462148,0.010411566350399425,-0.01110706634993713,0.29645569020408746
2.386819484240688,-2.710097784199346,-0.17811969777523642,1.0297370315625,-0.019116797503855698,0.07592910732100153,0.3554746138453117,-0.22206271897499258,-0.4027649875408347,0.7920548100901806,0.059627064842722004,0.03408147928020219,0.2891874955818356
2.4068767908309456,-2.70840705280446,-0.17099511227243,1.025305513283976,-0.027114710140204955,0.09382156720879363,0.35714045759013274,-0.22094465159594384,-0.39704823353334284,0.9953186354012458,0.10658404176120059,0.07741913539895139,0.28259999136544733
2.4269340974212037,-2.706318565151111,-0.16382796717601794,1.020904901906638,-0.03499956063520899,0.11566761359759506,0.35972317089599803,-0.218978104153685,-0.39145655892640774,1.1874465897936963,0.1513203257154208,0.11893420232011345,0.2766768311204162
2.4469914040114613,-2.7037554634316208,-0.15660036671146488,1.016551804400599,-0.04277371879784696,0.1412465168451794,0.36317871818971836,-0.2161992454290313,-0.3859768403049473,1.3686374508818169,0.19387374531496815,0.15865498035748604,0.27140166841223573
2.4670487106017194,-2.7006452646756345,-0.14929528824997734,1.012262110020417,-0.050439295238083305,0.17034152286160004,0.36746382047029624,-0.21264367819651916,-0.38059628118256944,1.5390899962798936,0.23428212916942798,0.1966097698248704,0.26675815680639897
2.4871060171919774,-2.696919781239072,-0.14189656717705987,1.0080510016252229,-0.05799814790544147,0.20273985310920278,0.3725359553089255,-0.20834643922441076,-0.3753024120015723,1.699003003602211,0.2725833058883858,0.2328268710360678,0.2627299498683999
2.507163323782235,-2.6925150412930843,-0.13438888176107125,1.0039329669988453,-0.06545188862757786,0.23823270460261237,0.3783533568489923,-0.20334199927469226,-0.37008309013294455,1.8485752504630537,0.30881510408142776,0.26733458430487583,0.25930070116373144
2.527220630372493,-2.6873712093130044,-0.1267577380217805,0.9999218101699351,-0.07280188964885541,0.2766152499087441,0.3848750158060737,-0.19766426310307314,-0.3649264998763642,1.988005514476704,0.34301535235813874,0.30016120994509665,0.25645406425788697
2.5472779369627507,-2.68143250656731,-0.11898945459892347,0.9960306627320927,-0.0800492901689177,0.31768663714679524,0.3920606794679394,-0.19134656945898706,-0.35982115246020013,2.117492573257455,0.37522187932810447,0.33133504827052923,0.2541736927163602
2.567335243553009,-2.6746471316065663,-0.11107114762075844,0.992271995163992,-0.08719500288126246,0.3612499899882512,0.3998708516945502,-0.18442169108559173,-0.3547558860415111,2.2372352044195907,0.40547251360091074,0.3608843995949731,0.2524432401046447
2.587392550143267,-2.6669671807523887,-0.10299071557262263,0.9886576281495062,-0.09423972051181549,0.4071124076568828,0.40826679291805873,-0.17692183471976924,-0.34971986570604574,2.347432185577387,0.43380508378614285,0.38883756423222987,0.2512463599882336
2.6074498567335245,-2.658348568586393,-0.09473682416548831,0.9851987438978342,-0.10118392235750456,0.45508496492874645,0.4172105201428094,-0.1688786410921253,-0.3447025834682431,2.4482822943451366,0.4602574184933863,0.41522284249609986,0.2505667059326201
2.6275071633237825,-2.6487509484391514,-0.08629889120451889,0.9819058974636254,-0.10802788082483304,0.5049827121321834,0.42666480694533826,-0.16032318492698913,-0.33969385827123233,2.5399843083371265,0.48486734633222683,0.4400685347003803,0.25038793150329836
2.64756446991404,-2.638137632879147,-0.07766707145762522,0.9787890280671053,-0.11477166796845381,0.556624675147822,0.4365931834743731,-0.15128597494241533,-0.3346838359868327,2.622737005167638,0.5076726959122498,0.46340294115887337,0.25069369026576116
2.667621776504298,-2.626475514201726,-0.06883224152402156,0.9758574704142003,-0.12141516202974298,0.6098338554085747,0.44695993645083326,-0.14179695385018087,-0.32966298941555333,2.696739162450958,0.528711295843041,0.48525436218537854,0.2514676357855021
2.6876790830945563,-2.6137349849180573,-0.05978598470278209,0.9731199660166662,-0.1279580539753739,0.6644372298996408,0.4577301091678304,-0.131885498355788,-0.32462211828659404,2.762189557801372,0.5480209747341857,0.5056510980936965,0.25269342162801467
2.707736389684814,-2.599889858244078,-0.05052057586139657,0.9705846745122094,-0.13439985403589066,0.7202657511585054,0.4688695014906671,-0.12158041915846227,-0.31955234925784426,2.819286968833164,0.5656395611952696,0.5246214491976262,0.2543547013587924
2.727793696275072,-2.584917288589456,-0.041028966304326994,0.9682591849846153,-0.14073989824428215,0.7771543472749382,0.48034466985683794,-0.11090996095115327,-0.3144451359158839,2.8682301731606183,0.581604883835878,0.5421937158109694,0.2564351285433285
2.7478510028653296,-2.5687976920465396,-0.03130476864156339,0.966150527283873,-0.14697735497455564,0.8349419218909966,0.4921229272760296,-0.09990180242053524,-0.3092922587759828,2.9092179483980263,0.5959547712655973,0.5583961982475233,0.25891835674711666
2.7679083094555876,-2.5515146668793127,-0.021342241657180308,0.9642651833463008,-0.15311123148031078,0.8934713542010209,0.50417234333012,-0.08858305624700576,-0.30408582528210104,2.942449072159663,0.608727052094012,0.5732571968210907,0.26178803953564994
2.7879656160458457,-2.533054914012351,-0.011136275177892629,0.9626090985146722,-0.15914038043331336,0.9525894989516402,0.5164617441731787,-0.07698026910468643,-0.2988182698068886,2.968122322059823,0.619959554930708,0.5868050118454711,0.265027830474422
2.8080229226361033,-2.513408157519772,-0.000682374941612076,0.9611876928583399,-0.16506350646206888,1.0121471864417662,0.5289607125314671,-0.06511942166142279,-0.2934823536516858,2.9864364757127873,0.6296901083852706,0.5990679436344624,0.2686213831289263
2.8280802292263614,-2.492567065114198,0.01002335253399684,0.960005872493365,-0.17087917269039687,1.0719992225225992,0.541639587703439,-0.053025928578785006,-0.28807116504652325,2.9975903107328397,0.637956541067286,0.6100742925018682,0.2725523510646561
2.848137535816619,-2.470527168635697,0.020984215082960576,0.9590680409026371,-0.17658580727600412,1.1320043885976225,0.5544694655597391,-0.04072463851206656,-0.2825781191501215,3.0017826047342684,0.6447966815863395,0.6198523587614861,0.27680438784710487
2.868194842406877,-2.447286784540749,0.032202950022440356,0.9583781102560037,-0.18218170994905875,1.1920254416226075,0.5674221985432035,-0.028239834110285578,-0.276996958049891,2.9992121353313586,0.6502483585520162,0.628430442727116,0.28136114704176624
2.888252148997135,-2.422846934391196,0.04368173928417618,0.9579395127303952,-0.1876650585507641,1.2519291141056104,0.5804703956688613,-0.015595232016183222,-0.2713217507619328,2.9900776801383953,0.6543494005739025,0.6358368447125595,0.2862062822141334
2.9083094555873927,-2.3972112653431923,0.05542222454593041,0.9577552118299497,-0.1930339155719323,1.3115861141069716,0.5935874225239317,-0.0028139828662257227,-0.2655468932310377,2.9745780167696605,0.6571376362615831,0.6420998650316156,0.29132344692969986
2.928366762177651,-2.3703859706361663,0.0674255223629318,0.9578277137061384,-0.19828623469155846,1.37087112523932,0.6067474012678271,0.010081328709397458,-0.2596671083306869,2.9529119228394456,0.6586508942246437,0.647247803998084,0.29669629475395903
2.9484240687679084,-2.3423797100817683,0.07969223929931923,0.958159078477891,-0.2034198673153937,1.4296628066675676,0.6199252106321504,0.023068684086772512,-0.2536774458630513,2.9252781759620303,0.65892700307267,0.6513089619257658,0.3023084792524042
2.9684813753581665,-2.3132035305528325,0.0922224870595855,0.9587509315517242,-0.20843256911452018,1.4878437931089152,0.6330964859206974,0.036126630648261604,-0.24757328255899283,2.8918755537517034,0.6580037914152481,0.654311639128461,0.30814365399052907
2.988538681948424,-2.2828707864723174,0.10501589762002143,0.9596044749418609,-0.21332200656392353,1.5453006948328456,0.6462376190094548,0.04923428178250305,-0.2413503220780624,2.8529028338227467,0.6559190878619626,0.6562841359199681,0.31418547253382706
3.008595988538682,-2.251397060302278,0.11807163836015917,0.9607204985903627,-0.21808576348106767,1.6019240976611298,0.6593257583466008,0.062371316884411054,-0.23500459500850188,2.8085587937894494,0.6527107210223996,0.657254752614089,0.32041758844779133
3.02865329512894,-2.218800083032806,0.13138842719421667,0.9620993916872506,-0.22272134756446813,1.6576085629678239,0.6723388089525063,0.07551798135517593,-0.228532458867243,2.759042211266092,0.6484165195061444,0.657251789524623,0.32682365529791546
3.048710601719198,-2.185099654670989,0.14496454770254114,0.9637411539906324,-0.227226196932266,1.7122526276792682,0.6852554324197325,0.08865508660226423,-0.22193059809990748,2.704551863866964,0.6430743119227824,0.6563035469653699,0.3333873266496929
3.068767908309456,-2.15031756472987,0.15879786426305273,0.9656454071468294,-0.2315976866608019,1.7657588042740924,0.6980550469130341,0.10176401003941765,-0.21519602408080768,2.6452865292063525,0.6367219268818998,0.6544383252501293,0.34009225606861726
3.0888252148997135,-2.1144775127173863,0.17288583718268877,0.9678114060104972,-0.23583313532318906,1.818033580783207,0.7107178271693555,0.11482669508665472,-0.20832607511294518,2.5814449848985346,0.6293971929930816,0.651684424692703,0.34692209712018124
3.1088825214899716,-2.0776050286253476,0.18722553782884754,0.9702380499647589,-0.23992981152788842,1.8689874207898145,0.723224704497835,0.12782565117026973,-0.20131841642801288,2.5132260085578055,0.6211379388659138,0.6480701456068896,0.3538605033698792
3.1289398280802296,-2.0397273934183633,0.20181366376083165,0.9729238942413221,-0.24388494045728087,1.918534763429396,0.7355573667798005,0.14074395372283316,-0.19417104018639256,2.440828377798441,0.611981993109981,0.6436237883064893,0.3608911283832039
3.1489971346704873,-2.0008735595228218,0.21664655386129245,0.9758671612406113,-0.2476957104062425,1.9665940233897228,0.747698258468773,0.15356524418319084,-0.18688226547715714,2.364450870234733,0.60196718433487,0.6383736531053028,0.3679976257256491
3.1690544412607453,-1.9610740713158255,0.23172020346767355,0.97906575185189,-0.25135927932071733,2.013087590910851,0.7596305805904646,0.16627372999646522,-0.17945073831806915,2.2842922634809635,0.5911313411501651,0.6323480403171291,0.3751636489627081
3.189111747851003,-1.9203609856141561,0.24703027950365472,0.9825172567733862,-0.25487278133629176,2.057941831785123,0.7713382907427796,0.1788541846140549,-0.1718754316555815,2.2005513351514185,0.5795122921654525,0.6255752502557692,0.3823728516598744
3.209169054441261,-1.8787677921632253,0.26257213561059584,0.9862189678324199,-0.2582333333167682,2.1010870873571657,0.7828061030958136,0.19129194749363354,-0.16415564536483687,2.113426862860385,0.5671478659903183,0.6180835832350229,0.3896088873826413
3.229226361031519,-1.8363293341260267,0.27834082727898013,0.9901678893055251,-0.26143804139273824,2.14245767452389,0.7940194883918532,0.20357292409915184,-0.1562910062496684,2.023117624222145,0.5540758912343468,0.6099013395686896,0.3968554096965023
3.2492836676217767,-1.7930817285721,0.2943311269798593,0.9943607492385813,-0.2644840075001581,2.1819918857344986,0.8049646739453791,0.21568358590083586,-0.14828146804259956,1.9298223968509889,0.540334196507125,0.6010568195705706,0.40409607216695104
3.2693409742120347,-1.7490622869664676,0.3105375392962959,0.9987940107669306,-0.2673683359189202,2.2196319889904728,0.8156286436430608,0.22761097037518807,-0.1401273114048432,1.8337399583611957,0.5259606104182369,0.5915783235544647,0.4113145283594804
3.2893982808022924,-1.7043094356586084,0.32695431605480807,1.0034638834355123,-0.270088139811429,2.2553242278455836,0.8259991379437612,0.23934268100498668,-0.1318291439263031,1.7350690863670537,0.510992961577269,0.5814941518341726,0.4184944318395844
3.3094555873925504,-1.6588626363713992,0.3435754714568131,1.008366334518981,-0.27264054776117363,2.2890188214058873,0.8360646538785348,0.25086688727928574,-0.12338790012557269,1.6340085584828474,0.49546907859380696,0.5708326047234948,0.425619436172756
3.3295128939828085,-1.6127623066900725,0.3603947972100711,1.013497100341837,-0.27502271031130177,2.320669964329726,0.8458144450506274,0.2621723246934158,-0.11480484144993576,1.5307571523228662,0.4794267900774354,0.5596219825362296,0.4326731949244892
3.349570200573066,-1.5660497405511724,0.37740587766012956,1.0188516975985487,-0.27723180650319407,2.3502358268277264,0.855238521635477,0.2732482947489831,-0.1060815562753661,1.4255136455013897,0.4629039246377411,0.5478905855861796,0.43963936166027673
3.369627507163324,-1.5187670287315047,0.3946021049217656,1.0244254346736787,-0.279265050415037,2.3776785546627996,0.864327650380712,0.2840846649538697,-0.09721995990652765,1.3184768156327045,0.44593831088430846,0.5356667141871425,0.44650158994561234
3.3896848137535818,-1.470956979337101,0.41197669401043213,1.0302134229620137,-0.2811196977003982,2.4029642691501487,0.8730733546061549,0.29467186882223423,-0.08822229457677469,1.2098454403310983,0.42856777742672403,0.52297866865292,0.4532435333459895
3.40974212034384,-1.4226630382921566,0.4295226979736994,1.0362105881886816,-0.282793052126798,2.4260630671572523,0.8814679142038171,0.3050009058745106,-0.07909112944815117,1.0998182972108532,0.41083015287457225,0.5098547492973107,0.4598488454269015
3.429799426934098,-1.3739292098280027,0.4472330230227006,1.0424116817292859,-0.28428247211428587,2.4469490211038867,0.8895043656379045,0.3150633416374094,-0.06982936061139167,0.9885941638862566,0.3927632658374396,0.4963232564341159,0.4663011797538423
3.4498567335243555,-1.3247999769720469,0.46510044366357406,1.0488112919300232,-0.28558537727401156,2.465600178962103,0.8971765019448124,0.32485130764391656,-0.06044021108592064,0.8763718179715945,0.37440494492491183,0.4824124903771352,0.4725841898923045
3.4699140401146136,-1.2753202220367352,0.4831176178289086,1.0554038554278158,-0.28669925494680115,2.4819985642562448,0.9044788727331289,0.3343575014332949,-0.05092723081985272,0.7633500370811489,0.355793018746573,0.46815075144016804,0.478681529407782
3.489971346704871,-1.2255351471085032,0.5012771020091868,1.0621836684704322,-0.2876216667417296,2.4961301760629397,0.911406784183634,0.34357518655108227,-0.04129429668999264,0.6497275988292083,0.3369653159120103,0.45356633993701545,0.4845768518657682
3.5100286532951293,-1.1754901945367306,0.5195713663842279,1.0691448982366145,-0.28835025507469475,2.5079849890110983,0.9179562990492982,0.3524981925490929,-0.03154561250183534,0.5357032808300564,0.3179596650308083,0.43868755618147737,0.49025381083175645
3.530085959885387,-1.1252309674226966,0.5379928099546337,1.0762815941562054,-0.2888827497069914,2.5175569532819213,0.9241242366552856,0.3611209149854175,-0.021685708989565636,0.4214758606979755,0.2988138947125527,0.4235427004873529,0.49569605987124016
3.550143266475645,-1.074803150108535,0.5565337756732303,1.0835876992302702,-0.289216974283885,2.524843994608893,0.9299081728989508,0.36943831542442196,-0.011719443816059064,0.30724411604725765,0.2795658335668294,0.4081600731684428,0.5008872525497128
3.570200573065903,-1.0242524286661845,0.5751865655765127,1.0910570613512252,-0.2893508528731852,2.5298480142777833,0.9353064402498399,0.37744592143674865,-0.0016520015728806042,0.19320682449218385,0.2602533102032236,0.3925679745385473,0.5058110424326677
3.5902578796561606,-0.9736244113863466,0.5939434559160897,1.0986834446229625,-0.2892824165038199,2.5325748891266464,0.940318127749691,0.38513982659931595,0.008511106219714126,0.07956276364704074,0.24091415323132126,0.37679470491146616,0.5104510830855983
3.6103151862464187,-0.9229645492674393,0.6127967122901259,1.1064605406809749,-0.2890098097044093,2.533034471545826,0.9449430810124345,0.392516690495318,0.01876404111277978,-0.03348928887388869,0.22158619126070755,0.3608685646009995,0.5147910280739982
3.6303724928366763,-0.8723180565045503,0.6317386047747866,1.1143819800124821,-0.288531297041839,2.531240589477948,0.9491819022241919,0.3995737387142253,0.029100637728680503,-0.1457505554563162,0.20230725290096774,0.34481785392094677,0.5188145309633609
3.6504297994269344,-0.8217298309783918,0.6507614230556819,1.1224413432765556,-0.28784526965983454,2.527211046417925,0.9530359501432762,0.40630876285178397,0.03951440376109054,-0.25702225848595783,0.18311516676168815,0.32867087318510935,0.5225052453191793
3.6704871060171924,-0.771244374744255,0.6698574915593096,1.1306321726242454,-0.28695025181753464,2.520967621412957,0.956507340100193,0.4127201205100165,0.04999851997499412,-0.36710562034853167,0.1640477614524536,0.3124559227072863,0.5258468247069475
3.69054441260745,-0.7209057145209654,0.6890191845844995,1.1389479830187037,-0.2858449074280654,2.5125360690625262,0.9595989439976386,0.418806735297221,0.06054584020668485,-0.47580186342974573,0.14514286558285017,0.2962013028012771,0.5288229226921585
3.710601719197708,-0.6707573221798346,0.7082389414338575,1.147382273555312,-0.28452804659711384,2.5019461195184043,0.9623143903105019,0.4245680968279717,0.07114889136376666,-0.5829122101153204,0.12643830776246356,0.279935313780884,0.5314171928403055
3.7306590257879657,-0.6208420352336164,0.727509281545209,1.155928538781806,-0.28299863216150184,2.4892314784846463,0.9646580640858625,0.43000426072311904,0.08179987342515325,-0.6882378827909681,0.10797191660087835,0.263686255959904,0.5336132887168826
3.7507163323782238,-0.5712019773254602,0.7468228196230431,1.164580280018401,-0.28125578622776,2.4744298272175937,0.9666351069429928,0.43511584860978936,0.09249065944106814,-0.791580103842401,0.08978152070768042,0.24748242965213918,0.535394863887383
3.770773638968482,-0.5218784787178665,0.7661722807699565,1.1733310166779178,-0.27929879671070124,2.4575828225258736,0.9682514170733563,0.4399040481213845,0.10321279553304467,-0.8927400956553395,0.07190494869245656,0.23135213517138986,0.5367455719172997
3.7908309455587395,-0.47291199678163987,0.7855505156180962,1.1821742975859082,-0.2771271238719947,2.4387360967703984,0.969513649240608,0.4443706128975836,0.11395750089392617,-0.9915190806154942,0.05438002916479068,0.21532367283145515,0.5376490663721265
3.8108882521489975,-0.42434203648484375,0.8049505154606051,1.1911037123007793,-0.2747404068587396,2.4179392578643677,0.9704292147805955,0.44851786258434034,0.12471566778786573,-1.087718281108582,0.03724459073426889,0.199425342946135,0.5380890008173568
3.830945558739255,-0.3762070708817544,0.824365427383065,1.2001129024339212,-0.2721384702420391,2.395245889273264,0.9710062816013569,0.4523486828338853,0.13547786155032654,-1.1811389195203161,0.020536462010476875,0.18368544582922985,0.5380490288184838
3.851002865329513,-0.32854446160181733,0.8437885693949392,1.2091955729698307,-0.2693213305555737,2.370713550014859,0.9712537741831235,0.4558665253047244,0.14623432058808117,-1.2715822182364116,0.0042934716030003095,0.16813228179453965,0.5375128039410014
3.8710601719197713,-0.28139037933859795,0.8632134455610188,1.218345503586238,-0.26628920283417584,2.344403774659207,0.9711813735783161,0.4590754076616401,0.15697495637921244,-1.3588493996425846,-0.011446551878575573,0.15279415115586437,0.5364639797504026
3.891117478510029,-0.234779724338738,0.882633761132865,1.2275565599742313,-0.2630425071524026,2.31638207332865,0.9707995174115502,0.4619799135756911,0.16768935347311306,-1.4427416861245481,-0.026645779824664872,0.13769935422700474,0.5348862098121807
3.911174785100287,-0.18874604689090996,0.9020434376802526,1.2368227051583829,-0.2595818751631107,2.2867179316978157,0.9701193998796301,0.46458519272421084,0.1783667694904854,-1.5230603000680174,-0.0412663836256828,0.12287619132175942,0.53276314769183
3.9312320916905446,-0.14332146781477056,0.9214366282226152,1.2461380108168747,-0.25590815663602917,2.255484810993615,0.969152971751554,0.4668969607908108,0.188996135123342,-1.599606463858707,-0.055270534672042126,0.10835296275393025,0.5300784469548426
3.9512893982808026,-0.0985365989499159,0.9408077323604878,1.2554966686016227,-0.2520224259963342,2.2227601479952472,0.96791294036851,0.4689214994653764,0.1995660541350049,-1.6721813998823327,-0.06862040435415984,0.09415796883731542,0.5268157611667129
3.9713467048710607,-0.054420463644834105,0.9601514114069516,1.2648930014584048,-0.24792598886322187,2.1886253550341968,0.9664127696438796,0.4706656564440701,0.2100648033601063,-1.740586330524609,-0.08127816406244837,0.08031950988571601,0.522958743892934
3.9914040114613183,-0.011000417245862981,0.979462603519076,1.2743214749469836,-0.24362038858848314,2.153165819994234,0.9646666800632351,0.47213684542933054,0.22048033270458797,-1.804622478171248,-0.0932059851873227,0.06686588621293188,0.5184910486989996
4.011461318051576,0.03169793241385893,0.9987365388293648,1.2837767085612337,-0.23910741279507675,2.1164709063114144,0.9626896486843403,0.47334304612987166,0.23080026514570157,-1.8640910652079672,-0.1043660391191975,0.0538253981327641,0.5133963291504029
4.031518624641834,0.07365080452543898,1.0179687545771996,1.2932534870492673,-0.23438909991570317,2.078633952974078,0.9604974091371511,0.47429280426068376,0.24101189673200918,-1.9187933140204807,-0.1147204972484871,0.041226345959010646,0.5076582388126374
4.051575931232092,0.11483632481527173,1.0371551102402818,1.3027467717335584,-0.22946774573137868,2.0397522745228525,0.9581064516238154,0.47499523154303336,0.2511021965833822,-1.9685304469945024,-0.12423153096560591,0.0290970300054727,0.5012604312511963
4.07163323782235,0.15523460505608838,1.0562918026660786,1.3122517118310695,-0.22434590991000902,1.999927161050652,0.9555340229186721,0.4754600057044628,0.261057806891002,-2.01310368651575,-0.1328613116609687,0.017465750585950235,0.4941865600315737
4.091690544412608,0.19482782257800157,1.0753753812032658,1.3217636557733767,-0.21902642254496307,1.959263878202672,0.9527981263682523,0.47569737047879024,0.2708650429173601,-2.0523142549699354,-0.1405720107249886,0.006360808014244712,0.48642027871926174
4.111747851002866,0.23360029977954902,1.0944027628331705,1.3312781625267949,-0.2135123906936471,1.9178716671763982,0.9499175218912788,0.47571813560610987,0.28050989299625745,-2.085963374742774,-0.14732579954808278,-0.004189497395846564,0.4779452408797554
4.131805157593123,0.271538583638743,1.113371247301218,1.3407910129125038,-0.20780720491607785,1.8758637447216002,0.9469117259786658,0.47553367683279224,0.28997801853280525,-2.1138522682199814,-0.1530848495206636,-0.014156865330522295,0.468745100078547
4.151862464183381,0.3086315252241122,1.1322785322483724,1.3502982209266738,-0.20191454581345714,1.8333573031403336,0.9438010116935196,0.47515593591148386,0.2992547540034243,-2.135782157787273,-0.157811332033146,-0.023512995475982415,0.4588035098811304
4.1719197707736395,0.34487035920575126,1.1511227283425827,1.3597960450605902,-0.19583839056674496,1.790473510286939,0.9406064086711381,0.4745974206011069,0.30832510695584536,-2.1515542658303612,-0.1614674184759447,-0.03222958751842721,0.4481041238529989
4.191977077363897,0.38024878336636236,1.169902374410225,1.3692809996207793,-0.18958301947523382,1.7473375095680443,0.9373497031190107,0.47387120466685895,0.31717375800910896,-2.1609698147349614,-0.16401528023947265,-0.040278341144054625,0.4366305955596459
4.212034383954155,0.4147630381123045,1.1886164525675478,1.3787498660491353,-0.18315302249512216,1.7040784199425614,0.9340534378168185,0.47299092788021535,0.3257850608535659,-2.163830026886789,-0.16541708871414687,-0.047630956039067696,0.4243665785665651
4.232091690544413,0.4484119859846381,1.2072644033521152,1.388199704243044,-0.17655330577808825,1.660829335921688,0.9307409121164343,0.471970796018926,0.3341430422508764,-2.1599361246715594,-0.16563501529038005,-0.05425913188966475,0.4112957264392497
4.252148997134671,0.48119719117016857,1.2258461408542496,1.3976278638755086,-0.16978909820986438,1.6177273275689092,0.9274361819419235,0.47082558086701665,0.3422314020340106,-2.149089330474987,-0.1646312313585865,-0.060134568382044395,0.39740169274319315
4.2722063037249285,0.513122999012496,1.2443620678484784,1.4070319957152762,-0.16286595794880995,1.5749134404999943,0.9241640597895422,0.4695706202147911,0.3500335131072488,-2.131090866682786,-0.16236790830918188,-0.06522896520240984,0.3826681310438885
4.292263610315187,0.5441966155230572,1.262813090924974,1.4164100629469627,-0.15578977896448593,1.532532695882999,0.9209501147277377,0.4682218178588258,0.35753242144618075,-2.1057419556806716,-0.15880721753258079,-0.06951402203695922,0.36707869490683004
4.312320916905445,0.5744281868921739,1.2812006356210015,1.425760352491177,-0.1485667975762282,1.490734090438264,0.9178206723971504,0.46679564360197634,0.3647108460977066,-2.072843819854358,-0.15391133041919636,-0.0729614385718923,0.35061703789751064
4.332378223495702,0.6038308790000964,1.299526661552359,1.4350814863246504,-0.1412035989917218,1.4496705964384162,0.914802815010612,0.46530913325337275,0.3715511791800358,-2.0321976815895586,-0.14764241835944297,-0.07554291449340877,0.3332668135814237
4.35243553008596,0.6324209569280516,1.3177936775448251,1.4443724328003569,-0.1337071238455742,1.4094991617083688,0.9119243813531459,0.46377988862842157,0.3780354858826881,-1.9836047632719933,-0.1399626527437372,-0.07723014948771079,0.315011675524063
4.372492836676218,0.6602178644692873,1.336004756765599,1.4536325179676433,-0.12608467473788942,1.3703807096253187,0.9092139667819663,0.46222607754880496,0.38414550446649287,-1.9268662872873707,-0.1308342049624907,-0.07799484324099515,0.29583527729092124
4.392550143266476,0.6872443036401171,1.354163551854747,1.4628614368923514,-0.11834392277284206,1.3324801391187513,0.9067009232264803,0.46066643384248074,0.38986264626358935,-1.8617834760214098,-0.12021924640612036,-0.07780869543946434,0.27572127244749267
4.412607449856734,0.7135263141909683,1.3722743100566455,1.4720592649769462,-0.1104929140972504,1.2959663246704345,0.9044153591882863,0.45912025734368345,0.3951679956774271,-1.7881575518598225,-0.10807994846503877,-0.07664340576931639,0.2546533145592701
4.432664756446992,0.7390933531174261,1.3903418883514242,1.4812264692806394,-0.10254007643915114,1.261012116314426,0.9023881397411744,0.45760741389292425,0.4000423101827647,-1.7057897371883268,-0.09437848252966119,-0.07447067391675288,0.23261505719174747
4.45272206303725,0.7639783741712791,1.4083717685864117,1.4903639198395158,-0.0944942256463723,1.227794339637065,0.9006508865311265,0.4561483353369884,0.4044660203256713,-1.6144812543926337,-0.07907701999040218,-0.07126219956797275,0.20959015391041824
4.472779369627507,0.7882179073715667,1.4263700726075763,1.4994729009866588,-0.08636457222510747,1.1964937957769781,0.8992359777763148,0.4547640195289384,0.4084192297235258,-1.5140333258584602,-0.062137732237677046,-0.06698968240917758,0.185562258280775
4.492836676217765,0.8118521385156224,1.4443435773909734,1.5085551226722755,-0.07816072787848988,1.1672952614250796,0.8981765482671062,0.4534760303281137,0.41188171506501675,-1.4042471739715212,-0.043522790661898236,-0.06162482212656384,0.16051502386831218
4.5128939828080235,0.8349249886901221,1.4622997301741871,1.5176127317838226,-0.06989271204516542,1.1403874888245655,0.8975064893660567,0.452306497600127,0.41483292611014266,-1.2849240211175292,-0.023194366653481735,-0.05513931840633379,0.13443210423852214
4.532951289398281,0.8574841937821273,1.480246663587774,1.5266483234661326,-0.061570958437867404,1.1159632057709215,0.8972604490079147,0.4512781172168696,0.417251985690212,-1.1558650896822027,-0.0011146316028407544,-0.04750487093468925,0.10729715295689946
4.553008595988539,0.879581383990133,1.4981932107867084,1.5356649524415373,-0.053206321581989395,1.0942191156119163,0.8974738316996218,0.450414151056508,0.4191176897078429,-1.0168716020512523,0.02275424309960883,-0.038693179397825794,0.07909382358893713
4.573065902578797,0.9012721633351116,1.5161489205818242,1.5446661443299956,-0.04481008335415994,1.0753558972476054,0.8981827985203088,0.4497384270034838,0.4204085071369637,-0.8677447806103968,0.048450086063453135,-0.02867594348194835,0.04980576970012818
4.593123209169055,0.9226161891715602,1.5341240725712613,1.5536559069692173,-0.03639395952081562,1.059578205130329,0.8994242671213,0.4492753389485156,0.4211025800228123,-0.7082858477453493,0.07601072589827762,-0.017424862873252955,0.019416644855966725
4.613180515759312,0.9436772516985455,1.552129692271907,1.56263874173479,-0.027970106276775132,1.0470946692647147,0.90123591172611,0.44904984678859733,0.42117772348193666,-0.5382960258418215,0.10547399121367063,-0.004911637257939194,-0.012089897378055214
4.633237822349571,0.964523353470749,1.5701775662508413,1.5716196548603036,-0.019551126783813454,1.0381178952076748,0.9036561631304472,0.4490874764270002,0.4206114257021944,-0.35757653728553374,0.1368777106192116,0.008892033677790234,-0.044730203436442295
4.6532951289398286,0.985226788909514,1.58828025725678,1.5806041687574766,-0.011150077709234874,1.0328644640684073,0.9067242087022098,0.4494143197732699,0.4193808479427532,-0.16592860446219648,0.17025971272448848,0.024014450247731745,-0.07852061975370139
4.673352435530086,1.00586422381389,1.6064511193515185,1.58959833333628,-0.0027804757644476577,1.031554932508396,0.9104799923814884,0.4500570347432292,0.4174628245340905,0.03684655024247388,0.20565782613909134,0.04048391276569685,-0.11347749276434094
4.693409742120344,1.026512886490392,1.6247036044802707,1.5986068372350992,0.005542756537549355,1.0335357086432273,0.9148039771750426,0.45061590800751444,0.41462386137488555,0.1182567919792338,0.21883084336446557,-0.005537418516144172,-0.18072082936643388
4.713467048710602,1.0472083187247632,1.6430434955190876,1.6076130114642204,0.013793717688000804,1.0360594821719065,0.9191864062744098,0.4497527785541447,0.41020708246289,0.13384760011174238,0.21921523101386403,-0.08015936995478931,-0.2602733439752401
4.73352435530086,1.0679572360017613,1.6614710338005274,1.6165872441304263,0.021940705092040966,1.038878813164102,0.9235648164590069,0.4474339702226887,0.40424004585163714,0.1478184857048908,0.21843412517459615,-0.15111576938863028,-0.3357581232199324
4.7535816618911175,1.0887652278650977,1.6799859079169104,1.62550115058133,0.0299535225331864,1.0419616600114645,0.9279162082562855,0.4437321662694017,0.39680341481274367,0.16020513300246297,0.21651856556916257,-0.21846939520200098,-0.407244310667013
4.773638968481376,1.109637250163167,1.6985873526790543,1.634327787273995,0.037803573231672764,1.0452766947905219,0.932218202988148,0.43871879438284994,0.3879764697464976,0.17104322624824098,0.21349959192005502,-0.28228302577923714,-0.4748010498829848
4.793696275071634,1.1305776393227414,1.717274161532154,1.6430416266635761,0.04546383218702807,1.0487933032626742,0.9364490427709466,0.43246402668391215,0.37783710818185545,0.18036844968602028,0.20940824394978474,-0.3426194395046691,-0.5384974844343489
4.813753581661891,1.1515901266226722,1.7360446989716816,1.6516185320919714,0.05290881852064628,1.0524815848742008,0.9405875905154817,0.4250367797257794,0.3664618447764448,0.18821648755957943,0.20427556138083644,-0.3995414147626397,-0.5984027578876085
4.83381088825215,1.172677852467582,1.754896912959265,1.6600357326764639,0.060114567818360484,1.0563123527562537,0.9446133299270052,0.41650471449396026,0.35392581131656226,0.19462302411270496,0.1981325839357142,-0.4531117299374775,-0.6545860138092655
4.853868194842407,1.1938433806615683,1.7738283473385847,1.668271798198372,0.06705860447301651,1.0602571337248645,0.9485063655052195,0.4069342364062726,0.3403027567171753,0.19962374358918172,0.19101035133691163,-0.5033931634135217,-0.7071163957658229
4.873925501432665,1.2150887126818952,1.7928361542512574,1.6763066139916911,0.07371991402704613,1.0642881682809355,0.9522474225442737,0.39639049531284976,0.3256650470219206,0.20325433023279793,0.1829399033069275,-0.5504484935751082,-0.7560630473237824
4.893982808022923,1.2364153019526964,1.81191710655273,1.6841213558317456,0.08007891551504072,1.0683784106102487,0.9558178471327715,0.38493738549613626,0.3100836654031052,0.20555046828733936,0.17395227956826248,-0.5943404988065653,-0.8014951120496461
4.914040114613181,1.2578240681186676,1.8310676102281638,1.6916984648238285,0.0861174338063243,1.0725015285834607,0.9591996061537632,0.3726375456708926,0.29362821216170615,0.2065478419965916,0.16407851984341715,-0.6351319574922307,-0.8434817335099164
4.934097421203439,1.279315411318767,1.8502837168083255,1.6990216222918528,0.0918186719475272,1.0766319037561023,0.9623752872847496,0.3595523589841905,0.27636690472736986,0.20628213560434133,0.15334966385488247,-0.6728856480164417,-0.8820920552710952
4.954154727793696,1.3008892264599132,1.8695611357854784,1.706075724666997,0.09716718350515946,1.0807446313685827,0.9653280989976838,0.34574195301541677,0.2583665776584137,0.20478903335437215,0.14179675132515962,-0.7076643487635298,-0.917395220899686
4.974212034383955,1.32254491749068,1.8888952470292664,1.7128468583763479,0.10214884490818404,1.0848155203461842,0.9680418705589653,0.3312651997762687,0.2396926826418238,0.20210421949047008,0.12945082197674523,-0.7395308381178322,-0.9494603739621897
4.9942693409742125,1.344281411674998,1.9082811132026098,1.7193222747315533,0.10675082779059047,1.0888210932990667,0.9705010520294456,0.31617971571076003,0.22040928849325744,0.1982633782564242,0.11634291553213977,-0.768547894463682,-0.9783566580251094
5.01432664756447,1.3660971738658467,1.9277134921775854,1.7254903648174595,0.11096157133396788,1.092738586522265,0.9726907142644252,0.30054186169521596,0.20057908115704084,0.193302193896016,0.10250407171383547,-0.7947782961854177,-1.0041532166549472
5.034383954154729,1.3879902207789592,1.9471868494513265,1.7313406343807671,0.11477075461007896,1.09654594999569,0.9745965489136579,0.2844067430382763,0.18026336370617096,0.18725635065303647,0.08796533024433817,-0.8182848216673677,-1.0269191934182054
5.054441260744986,1.4099581352665111,1.9666953705619006,1.73686367871867,0.11816926892343277,1.1002218473841283,0.9762048684213417,0.26782820948089203,0.15952205634231412,0.18016153277126412,0.07275773084613801,-0.8391302492938755,-1.0467237318813862
5.074498567335244,1.4319980805908248,1.9862329735042057,1.7420511575675035,0.12114919015385847,1.1037456560372405,0.9775026060261283,0.25085885519632906,0.13841369639580675,0.17205342449449168,0.056912313241737844,-0.8573773574492677,-1.0636359756109919
5.0945558739255015,1.4541068146980647,2.0057933211458585,1.746895769991394,0.1237037510990787,1.1070974669895661,0.9784773157611194,0.23355001879016696,0.11699543832565584,0.16296771006650235,0.040460117153631514,-0.8730889245178846,-1.0777250681735246
5.11461318051576,1.4762807044919335,2.02536983364308,1.7513912292708997,0.12582731381728285,1.1102580849605175,0.9791171724538652,0.21595178330029727,0.09532305371953728,0.15294007373108065,0.023432182304320537,-0.8863277288840582,-1.0890601531354867
5.134670487106018,1.4985157401073737,2.04495570085659,1.7555322377916638,0.1275153419697007,1.113209028354385,0.9794109717263673,0.19811297619692608,0.07345093129379772,0.14200619973201467,0.005859548416301985,-0.897156548932124,-1.097710374063381
5.154727793696275,1.5208075491842585,2.0645438947674877,1.7593144619330519,0.1287643731631754,1.1159325292603322,0.9793481299950761,0.18008116938257163,0.05143207689345336,0.1302017723130895,-0.012226744787927402,-0.9056381630464166,-1.1037448745237088
5.174785100286534,1.5431514111410964,2.0841271818931513,1.762734506956807,0.1295719912927374,1.118411533452401,0.978918684470892,0.16190267919206608,0.02931811349219072,0.11756247571809042,-0.030795657585869884,-0.911835349611273,-1.1072327980829733
5.194842406876791,1.5655422714487246,2.1036981357031186,1.7657898918956902,0.1299367988841774,1.1206297003895078,0.9781132931591668,0.1436225663925557,0.007159281192365877,0.10412399419080431,-0.049816150255026725,-0.9158108870110258,-1.1082432883076765
5.214899713467049,1.587974755904005,2.1232491490349776,1.7684790244421271,0.12985838943661984,1.122571403215443,0.9769232348596995,0.12528463618349778,-0.014995562774995044,0.08992201197501526,-0.06925718307290252,-0.9176275536300114,-1.1068454887643202
5.234957020057307,1.6104431849035272,2.14277244651026,1.770801175836859,0.12933731976509666,1.1242217287588763,0.9753404091667419,0.10693143819666517,-0.0370989440501957,0.07499221331450978,-0.08908771631699652,-0.9173481278525624,-1.1031085430194068
5.255014326647565,1.6329415877173024,2.162260096950327,1.7727564557575841,0.1283750823431203,1.1255664775333503,0.9733573364689949,0.08860426649614331,-0.05910477114487001,0.059370282453076184,-0.10927671026481067,-0.9150353880630147,-1.0971015946394393
5.275071633237823,1.6554637167624608,2.1817040257922553,1.7743457872076052,0.1269740776452572,1.1265921637372855,0.9709671579496091,0.0703431595783309,-0.08096833544198201,0.04309190363449655,-0.12979312519384978,-0.9107521126457048,-1.0888937871909197
5.29512893982808,1.6780030618769477,2.2010960275047293,1.7755708814044748,0.12513758648970094,1.1272860152539745,0.9681636355861828,0.05218690037193893,-0.1026463111958254,0.026192761102558748,-0.15060592138161422,-0.904561079984965,-1.0785542642403492
5.315186246418339,1.700552864593228,2.2204277780039336,1.776434212668647,0.12286974238084654,1.1276359736515904,0.9649411521507691,0.03417301623799349,-0.12409675553202457,0.008708539101048629,-0.17168405910560725,-0.8965250684651322,-1.0661521693542317
5.335243553008596,1.7231061324119745,2.239690847069436,1.7769389933121158,0.12017550385186282,1.1276306941831784,0.9612947112098679,0.01633777896983296,-0.1452791084475335,-0.00932507812624861,-0.1929964986433299,-0.8867068564705405,-1.0517566460990686
5.355300859598854,1.74565565307577,2.2588767107600765,1.777089148527065,0.11706062680726613,1.1272595457866605,0.9572199371244283,-0.0012837952068909253,-0.1661541928106362,-0.02787240633554733,-0.21451220027228524,-0.8751692223855243,-1.0354368380413619
5.3753581661891126,1.768194008842807,2.2779767638298623,1.776889291274517,0.11353163686549413,1.126512611084835,0.9527130750498514,-0.018657945634213496,-0.186684214360947,-0.04689776128306056,-0.23620012426997494,-0.8619749445944195,-1.0172618887476146
5.39541547277937,1.7907135907605818,2.296982332143853,1.776344697172976,0.10959580170147878,1.125380686385375,0.9477709909359879,-0.03575216722185531,-0.20683276170940967,-0.0663654587250031,-0.2580292309139012,-0.8471868014815602,-0.9973009417843289
5.415472779369628,1.8132066129395916,2.315884685094048,1.7754612793870739,0.10526110338921983,1.1238552816808307,0.9423911715271376,-0.052535210447225644,-0.226564806338299,-0.08623981441758977,-0.279968480481567,-0.8308675714312819,-0.9756231407180069
5.435530085959885,1.8356651268270328,2.3346750480152756,1.7742455635162167,0.1005362107443582,1.1219286206486259,0.9365717243620502,-0.06897708135541891,-0.245846702601219,-0.10648514411703469,-0.3019868332504745,-0.8130800328279182,-0.9522976291151501
5.455587392550144,1.8580810354805026,2.3533446146010872,1.772704662483234,0.0954304516667496,1.119593640651062,0.9303113777739268,-0.08504904155921683,-0.26464618772310383,-0.12706576357954935,-0.3240532494981232,-0.7938869640558046,-0.9273935505422621
5.4756446991404015,1.8804461078416903,2.3718845593196414,1.770846251423023,0.08995378548303755,1.116843992735316,0.9236094808904178,-0.10072360823908744,-0.2829323818002184,-0.147945988561351,-0.3461366895020177,-0.7733511434992761,-0.9009800485658448
5.495702005730659,1.9027519930100767,2.390286049829594,1.768678542571191,0.084116775289227,1.113674041633438,0.9164660036336212,-0.1159745541431868,-0.3006757878001568,-0.16909013481865243,-0.36820611353966104,-0.7515353495426678,-0.8731262667523993
5.515759312320918,1.9249902345166343,2.408540259395985,1.7662102601527092,0.07793056029325787,1.110078865762358,0.9088815367200895,-0.130776907587355,-0.31784829156184335,-0.19046251810766934,-0.3902304818885547,-0.7285023605703149,-0.8439013486684297
5.535816618911175,1.9471522845975244,2.4266383793061372,1.7634506152705547,0.07140682815757826,1.1060542572238787,0.9008572916608213,-0.14510695245512234,-0.33442316179553294,-0.21202745418461433,-0.41217875482619926,-0.7043149549665515,-0.8133744378804375
5.555873925501433,1.9692295184677886,2.4445716312855295,1.760409280794355,0.06455778734171774,1.1015967218046794,0.892395100761267,-0.1589422281977031,-0.3503750500828102,-0.2337492588057022,-0.4340198926300989,-0.6790359111157129,-0.7816146779549247
5.575931232091691,1.9912132485950529,2.462331279913697,1.757096366249037,0.05739613944486088,1.096703478976315,0.8834974171213261,-0.17226152983399873,-0.3656799908765893,-0.2555922477271455,-0.4557228555777537,-0.6527280074021324,-0.7486912124583933
5.595988538681949,2.013094738973224,2.479908645040119,1.753522392703474,0.049935051548420824,1.0913724618952163,0.8741673146353485,-0.18504490795059864,-0.3803154015011152,-0.27752073670516086,-0.47725660394666836,-0.6254540222101475,-0.7146731849573466
5.616045845272207,2.0348652193961883,2.4972951142001083,1.7496982676591315,0.0421881285586126,1.0856023174026908,0.864408487992135,-0.19727366870177693,-0.39426008215196245,-0.29949904149596085,-0.49859009801434295,-0.5972767339240914,-0.6796297390182867
5.636103151862464,2.0565158997314996,2.51448215503069,1.7456352599387084,0.034169385549026,1.0793924060249187,0.854225252674934,-0.20893037380949642,-0.4074942158960359,-0.32149147785576115,-0.5196922980582812,-0.5682589209282987,-0.6436300182077144
5.656160458452723,2.0780379841940917,2.531461327686507,1.741344974574791,0.025893220103199797,1.0727428019729586,0.8436225449614453,-0.21999884056340557,-0.4199993686715703,-0.34346236154077303,-0.5405321643559833,-0.5384633616071055,-0.6067431660921339
5.67621776504298,2.099422685619966,2.5482242972556985,1.736839327698497,0.017374384657194736,1.065654293142745,0.8326059219238201,-0.23046414182083974,-0.43175848928813065,-0.3653760083072144,-0.5610786571849551,-0.5079528343448472,-0.5690383262380471
5.696275071633238,2.1206612397398885,2.564762846175789,1.7321305214281166,0.00862795884216689,1.0581283811150866,0.821181561428656,-0.24031260600682103,-0.4427559094266118,-0.3871967339112974,-0.5813007368226946,-0.47679011752585554,-0.5305846422119549
5.7163323782234965,2.1417449194530933,2.58106888664958,1.7272310187577644,-0.0003306781730589431,1.0501672811556677,0.8093562621370041,-0.24953181711405792,-0.4529773436392386,-0.40888885410923503,-0.6011673635467063,-0.4450379895344674,-0.49145125758036073
5.736389684813754,2.1626650491009753,2.5971344730610397,1.7221535184460244,-0.009485875339415625,1.04177392221505,0.797137443504363,-0.2581106147029455,-0.46240988934956584,-0.4304166846572426,-0.62064749763449,-0.4127592287550177,-0.4517073159097668
5.756446991404012,2.1834130187407927,2.612951814391193,1.716910929904597,-0.018821737385020396,1.0329519469286699,0.7845331457806829,-0.26603909390156677,-0.4710420268524788,-0.4517445413115362,-0.6397100993635534,-0.3800166135718419,-0.4114219607666754
5.77650429799427,2.2039802984193555,2.628513286634002,1.7115163480869409,-0.02832215247260153,1.0237057116168393,0.7715520300103633,-0.27330860540568946,-0.4788636193141925,-0.4728367398283271,-0.6583241290113921,-0.3468729223692737,-0.3706643357175887
5.796561604584528,2.224358452446733,2.643811445212267,1.7059830283769246,-0.03797081985692517,1.0140402862847453,0.7582033780322524,-0.27991175547877023,-0.4858659127722518,-0.4936575959638301,-0.6764585468555122,-0.31339093353164826,-0.32950358432900884
5.8166189111747855,2.2445391536699466,2.6588390373935074,1.7003243614774712,-0.04775127754222129,1.0039614546224533,0.7444970924796513,-0.28584240595195065,-0.49204153613553264,-0.5141714254742609,-0.6940823131734146,-0.2796334254433004,-0.2880088501674385
5.836676217765043,2.2645141977466663,2.673589014705854,1.694553848299203,-0.05764692993961086,0.9934757140049014,0.7304436967803081,-0.2910956742240596,-0.4973845011842395,-0.5343425441158334,-0.711164388242604,-0.24566317648856706,-0.24624927679937997
5.856733524355302,2.2842755174189087,2.688054545353934,1.6886850748490878,-0.06764107552453218,0.9825902754919051,0.7160543351564227,-0.29566793326161245,-0.5018902025699077,-0.5541352676447588,-0.7276737323405782,-0.2115429650517786,-0.20429400779133394
5.876790830945559,2.303815196786739,2.7022290266347686,1.6827316871190892,-0.07771693449416744,0.9713130638281544,0.7013407726246438,-0.2995568115988121,-0.5055554178154027,-0.5735139118172548,-0.7435793057448419,-0.17733556951727425,-0.16221218670980525
5.896848137535817,2.323125485581963,2.7161060973536535,1.6767073659748073,-0.08785767642486991,0.9596527174432166,0.686315394996071,-0.30276119333754736,-0.5083783073149197,-0.5924427923895332,-0.7588500687328965,-0.14310376826938564,-0.12007295712129401
5.916905444126075,2.3421988134418257,2.729679650240049,1.6706258020441287,-0.09804644792958941,0.9476185884515338,0.6709912088762531,-0.30528121814739384,-0.5103584143339844,-0.6108862251178095,-0.7734549815822449,-0.10891033969244979,-0.07794546259230412
5.936962750716333,2.3610278041827106,2.7429438443634737,1.6645006706058711,-0.10826640031530015,0.9352207426524233,0.6553818416651898,-0.307118281265614,-0.5114966650094521,-0.6288085257582985,-0.787363004570389,-0.07481806217080034,-0.035898846689336406
5.957020057306591,2.379605290073837,2.7558931175493893,1.6583456064784303,-0.11850071724042625,0.9224699595300794,0.6395015415573295,-0.3082750334971568,-0.5117953683495082,-0.6461740100672126,-0.800543097974832,-0.04088971408877384,0.005997747021105393
5.977077363896848,2.3979243261109557,2.7685221987950928,1.6521741789084268,-0.12873264237226933,0.9093777322535712,0.6233651775415718,-0.30875538121465806,-0.5112582162336681,-0.6629469938007682,-0.8129642220730751,-0.007188073830703523,0.04767517497251994
5.997134670487107,2.4159782042900475,2.7808261206856004,1.6459998664593507,-0.1389455070444341,0.8959562676768436,0.6069882394012653,-0.30856448635844025,-0.5098902834127774,-0.6790917927151767,-0.8245953371426209,0.026224080219074963,0.08906429359840512
6.017191977077364,2.4337604678810227,2.7928002318095433,1.6398360319002094,-0.1491227579142561,0.8822184863387172,0.5903868377142087,-0.30770876643651257,-0.5076980275090122,-0.6945727225666531,-0.8354054034609701,0.059283969676227954,0.13009595933225798
6.037249283667622,2.4512649257014143,2.804440209175051,1.6336958970941726,-0.159247984620227,0.8681780224628897,0.5735777038526524,-0.30619589452457086,-0.5046892890158776,-0.7093540991114113,-0.8453633813056243,0.09192881615641979,0.1707010286075763
6.05730659025788,2.4684856663900794,2.815742070625642,1.6275925178872193,-0.16930494743942232,0.8538492239579316,0.5565781899832927,-0.3040347992659975,-0.5008732912982095,-0.7234002381056697,-0.854438230954091,0.12409584127531392,0.21081035785785784
6.077363896848138,2.485417072680896,2.8267021872561164,1.621538758996785,-0.1792776049449278,0.839247152417292,0.5394062690672803,-0.3012356648718624,-0.4962606405921736,-0.7366754553056358,-0.862598912683866,0.15572226664857935,0.25035480351660133
6.097421203438396,2.5020538356764583,2.8373172958284387,1.6155472689004056,-0.18915014166326502,0.8243875831192939,0.5220805348602138,-0.297809931120921,-0.49086332600526605,-0.7491440664675264,-0.8698143867724544,0.1867453138918782,0.28926522201730265
6.117478510028654,2.5183909691217767,2.8475845111876303,1.6096304547243658,-0.19890699573181964,0.8092870050271375,0.5046202019121406,-0.29377029335961624,-0.48469471951631216,-0.7607703873475606,-0.8760536134973602,0.21710220462087526,0.32747246979346145
6.137535816618912,2.5344238236779724,2.8575013386776593,1.603800457132344,-0.20853288655626637,0.7939626207888963,0.4870451055675611,-0.2891307025020773,-0.4777695759754681,-0.7715187337019445,-0.8812855531360824,0.24673016045123797,0.3649074032785743
6.157593123209169,2.550148101195981,2.8670656865573276,1.5980691252140609,-0.21801284246799724,0.7784323467375227,0.46937570196542233,-0.2839063650301201,-0.47010403310421967,-0.7813534212868962,-0.8854791659661241,0.27556640299862944,0.40150087890613895
6.177650429799427,2.565559868990241,2.876275878416161,1.5924479913739211,-0.22733222838154615,0.7627148128908432,0.4516330680391245,-0.2781137429932474,-0.4617156114953832,-0.790238765858631,-0.8886034122649891,0.3035481538787159,0.4371837531096536
6.1977077363896855,2.5806555741123995,2.885130665590296,1.5869482462196645,-0.23647677345201765,0.7468293629515586,0.4338389015165154,-0.27177055400864925,-0.4526232146131044,-0.798139083173361,-0.8906272523101773,0.3306126347071625,0.47188688232261533
6.217765042979943,2.595432057625006,2.893629239578373,1.5815807134510091,-0.24543259873251214,0.7307960543072474,0.41601552091989236,-0.26489577126120123,-0.44284712879285937,-0.8050186889873008,-0.8915196463791917,0.3566970670996342,0.5055411229785225
6.237822349570201,2.6098865688752086,2.9017712444574224,1.5763558247483003,-0.2541862448315526,0.7146356580303641,0.3981858655660062,-0.2575096235034664,-0.43240902324145436,-0.8108418990566648,-0.8912495547495338,0.38173867267179595,0.5380773315108726
6.257879656160459,2.624016779768455,2.909556789298752,1.571283594661153,-0.2627246995705117,0.6983696588782378,0.38037349556605315,-0.24963359505569382,-0.42133195003702534,-0.8155730291376666,-0.8897859376987083,0.40567467303931304,0.5694263643531632
6.277936962750717,2.6378207990421867,2.91698646058384,1.5663735954971016,-0.27103542564103805,0.6820202552930725,0.362602591825683,-0.2412904258058206,-0.40964034412903866,-0.8191763949865214,-0.8870977555042139,0.4284422898178505,0.5995190779388919
6.2979942693409745,2.6512971865395407,2.924061334620222,1.5616349322102452,-0.27910638826248313,0.6656103594019502,0.3448979560449934,-0.2325041112094688,-0.39736002333829046,-0.8216163123594418,-0.8831539684435548,0.4499787446230743,0.628286328701557
6.318051575931233,2.6644449674830413,2.93078298995738,1.5570762172898927,-0.2869260828393271,0.6491635970168268,0.32728501071853255,-0.2232999022899489,-0.38451818835690726,-0.8228570970126448,-0.8779235367942342,0.4702212590706475,0.6556589730746557
6.338108882521491,2.6772636467483024,2.9371535198026306,1.5527055456492103,-0.29448356261860653,0.6327043076345356,0.30978979913529914,-0.2137043056382566,-0.37114342274834533,-0.8228630647023416,-0.8713754208337522,0.48910705477623784,0.6815678674916862
6.358166189111748,2.6897532231377226,2.943175544437015,1.5485304695138675,-0.3017684663473399,0.6162575444367826,0.292438985378741,-0.2037450834130754,-0.35726569294739097,-0.8215985311847492,-0.8634785808396126,0.5065733533555075,0.7059438683861455
6.378223495702006,2.7019142036541837,2.9488522236311887,1.5445579733106831,-0.3087710459299552,0.5998490742901539,0.2752598543267566,-0.19345125334077462,-0.3429163482601607,-0.8190278122160779,-0.8542019770893162,0.5225573764241248,0.728717832191532
6.398280802292264,2.7137476177747484,2.9541872690613102,1.5407944485562721,-0.31548219408571576,0.5835053777461057,0.25828031165169296,-0.18285308871541073,-0.3281281208641007,-0.8151152235525448,-0.8435145698603654,0.5369963455977529,0.7498206153413433
6.418338108882522,2.725255031724357,2.9591849567249273,1.5372456687456908,-0.3218934720061472,0.5672536490409761,0.24152888382034954,-0.17198211839872735,-0.312935125807988,-0.8098250809503641,-0.8313853194302638,0.549827482492057,0.7691830742690768
6.43839541547278,2.736438562749525,2.9638501393568695,1.5339167642410843,-0.327997137012464,0.5511217960959747,0.22503471809397446,-0.16087112682015325,-0.29737286101192895,-0.8031217001657486,-0.8177831860765125,0.5609880087227032,0.7867360654082303
6.458452722063038,2.7473008933920404,2.968188258845136,1.5308121971603317,-0.33378617021299595,0.5351384405171884,0.2088275825282646,-0.14955415397680616,-0.28147820726736006,-0.7949693969549138,-0.802677130076613,0.570415145905356,0.8024104451923015
6.478510028653296,2.757845285762663,2.972205358646784,1.5279357362656936,-0.3392543041606151,0.519332917595579,0.19293786597336826,-0.13806649543348826,-0.26528942823704793,-0.7853324870740718,-0.7860361117080679,0.5780461156556808,0.8161370700547887
6.498567335243553,2.76807559581482,2.9759080962038196,1.5252904318524572,-0.3443960505101619,0.5037352763069847,0.17739657807388376,-0.12644470232269045,-0.24884617045508972,-0.7741752862794407,-0.7678290912483824,0.5838181395893416,0.8278467964291889
6.518624641833811,2.7779962876183033,2.9793037553590813,1.522878590637583,-0.34920672767587224,0.48837627931211935,0.1622353492688582,-0.1147265813445888,-0.23218946332691198,-0.7614621103272299,-0.7480250289750547,0.5876684393220051,0.8374704807490001
6.5386819484240695,2.78761244763297,2.982400258772139,1.5207017506483516,-0.35368248848880374,0.4732874029565721,0.14748643079178958,-0.10295119476704628,-0.21536171912927116,-0.7471572749736551,-0.7265928851655856,0.5895342364693367,0.84493897944772
6.558739255014327,2.7969297989824344,2.985206180335171,1.518760656111009,-0.3578203478542623,0.4585008372708086,0.13318269467062605,-0.09115886042561372,-0.19840673301025444,-0.7312250959749313,-0.7035016200974824,0.5893527526469997,0.8501831489588462
6.578796561604585,2.805954715727773,2.9877307575888645,1.5170552323394135,-0.3616182104092293,0.44404948597016825,0.11935763372776487,-0.07939115172352684,-0.18136968298927858,-0.7136298890872748,-0.6787201940482457,0.5870612094706601,0.8531338457158768
6.598853868194843,2.814694237141213,2.9899839041382954,1.515584560623681,-0.3650748981797871,0.42996696645486976,0.10604536158005473,-0.06769089763170966,-0.16429712995709078,-0.6943359700668951,-0.652217567295375,0.5825968285559839,0.8537219261523091
6.618911174785101,2.82315608197984,2.9919762220688213,1.514346853118834,-0.3681901782385471,0.416287609810003,0.09328061263879128,-0.05610218268877243,-0.14723701767576755,-0.6733076546700092,-0.6239627001163754,0.575896831518635,0.851878246701641
6.638968481375358,2.831348662759286,2.9937190143619734,1.5133394277334442,-0.3709647903620748,0.40304646080553796,0.08109874210972379,-0.04467034700101191,-0.13023867277871648,-0.6505092586528305,-0.5939245527887471,0.5668984399742796,0.84753366379737
6.659025787965617,2.8392811000274327,2.9952242973113394,1.512558683018281,-0.3734004746883176,0.3902792778963171,0.06953572599304936,-0.033441986242410904,-0.11335280477067411,-0.6259050977715739,-0.5620720855899934,0.5555388755385813,0.8406190338729943
6.679083094555875,2.846963236638108,2.996504812938455,1.5120000730549572,-0.3754999993740308,0.37802253322206125,0.05862816108341562,-0.02246495165464002,-0.0966315060277082,-0.599459487782454,-0.5283742587976179,0.5417553598272062,0.8310652133620116
6.699140401146132,2.8544056520247816,2.9975740414086953,1.511658082344576,-0.37726718825220423,0.36631341260736483,0.04841326496991938,-0.011788350047056362,-0.08012825179721533,-0.5711367444416817,-0.49280003268911887,0.5254851144558217,0.8188030586979188
6.71919770773639,2.8616196764742656,2.9984462134471617,1.5115262006963754,-0.37870694848948927,0.3551898155616977,0.038928876036108395,-0.0014625437967030752,-0.06389790019792274,-0.5409011835054756,-0.45531836754200317,0.5066653610400875,0.8037634263142148
6.739255014326648,2.8686174054004088,2.9991363227545706,1.5115968981163763,-0.3798252982436248,0.3446903552794076,0.0302134534599805,0.008460849151689098,-0.04799669221988817,-0.5087171207300472,-0.41589822363376916,0.48523332119567364,0.7858771726443963
6.759312320916906,2.8754117136177957,2.999660138423141,1.5118615996960287,-0.38062939432086434,0.3348543586397157,0.022306077213982478,0.017928955285703374,-0.03248225172449837,-0.47454887187161,-0.3745085612419201,0.46112621653824304,0.7650751541219611
6.7793696275071635,2.8820162696154448,3.0000342173524888,1.5123106605008563,-0.38112755983340235,0.32572186620672183,0.01524644806501163,0.026887645525235815,-0.017413585444471052,-0.4383607526863811,-0.3311183406439602,0.4342812686834612,0.741288227180408
6.799426934097422,2.8884455498305055,3.00027591666551,1.5129333404591045,-0.38132931185680113,0.31733363222939825,0.00907488757441488,0.03528153522249666,-0.0028510829838534757,-0.40011707893057036,-0.2856965221173873,0.4046356992469944,0.7144472482532332
6.81948424068768,2.8947148529219544,3.000403406124272,1.5137177792503862,-0.381245389087417,0.30973112464159525,0.0038323380979898847,0.04305398416200845,0.011143483181976693,-0.3597821663603993,-0.23821206593970956,0.3721267298445059,0.684483073773936
6.839541547277937,2.900840314044294,3.0004356805459045,1.5146509711943272,-0.3808877794998273,0.30295652506203674,-0.00043963721401651945,0.05014709656060712,0.02450695770631242,-0.31732033073207155,-0.18863393238842097,0.3366915820916634,0.6513265601760125
6.859598853868196,2.906838919121251,3.0003925722184843,1.5157187401392136,-0.38026974800425667,0.29705272879432565,-0.0036988544169056503,0.056501721067443667,0.037174802371115895,-0.2726958878018104,-0.13693108174103585,0.29826747760412786,0.614908563892962
6.879656160458453,2.9127285191194723,3.0002947633169286,1.5169057143506377,-0.379405864104004,0.2920633448269363,-0.005902508771533421,0.062057450763978506,0.04908109608701955,-0.22587315332582936,-0.08307247427504727,0.2567916379975679,0.5751599413582815
6.899713467048711,2.918527844322223,3.0001637983188814,1.5181953014001446,-0.3783120295528685,0.2880326958332222,-0.0070071747443001264,0.06675262316399044,0.06015853489332586,-0.17681644306033295,-0.027027070267955366,0.212201284887648,0.5320115490054678
6.919770773638969,2.9242565186030838,3.000022096420602,1.5195696630538762,-0.3770055060125771,0.2850058181714118,-0.006968806007160322,0.0705243202135668,0.0703384319580069,-0.12549007276154445,0.031236170002735264,0.16443363989003412,0.4853942432680196
6.939828080229227,2.929935073699649,2.9998929639528567,1.5210096901612216,-0.3755049427102101,0.2830284618846082,-0.005742735437617497,0.0733083682911112,0.07955071757770532,-0.07185835818567998,0.0917482862595147,0.11342592462038859,0.43523888057943505
6.959885386819485,2.9355849634872246,2.9998006067968053,1.5224949775434602,-0.3738304040956286,0.2821470907007909,-0.0032836751187226287,0.0750393382073401,0.08772393917773298,-0.01588561508894415,0.154540318224889,0.059115360694379504,0.3814763173732114
6.979942693409742,2.941228578252523,2.9997701427998917,1.5240037988824084,-0.3720033974989007,0.28240888203281506,0.00045428366091881944,0.07565054520528167,0.09478526131207246,0.04246384077243981,0.2196433056213536,0.0014391697276687765,0.32403741008284537
7.0,2.9468892589673636,2.999827614191732,1.525513081609067,-0.37004690078772806,0.28386172697841033,0.00551767040715434,0.07507404896027926,0.10066046566337579,0.10322569364226375,0.2870882881714092,-0.05966542666407548,0.2628530151418369
