time,pos_x,pos_y,pos_z,yaw,vel_x,vel_y,vel_z,vel_yaw,acc_x,acc_y,acc_z,acc_yaw
0.0,-2.9999999999999987,-2.999999999999999,1.4999999999999993,0.0,0.0,0.0,0.0,0.0,0.0,0.0,0.0,0.0
0.02005730659025788,-2.9999988222166056,-2.9999824198464418,1.4999997704532533,-1.4379423811737103e-08,0.000176095003822484,0.002625870332195836,-3.417397639338235e-05,-2.1922563509027974e-06,0.01749516837929674,0.2603603116635485,-0.0033658907481684663,-0.00022625826123423237
0.04011461318051576,-2.9999906690632328,-2.999861137093794,1.4999982047513702,-1.206327476614637e-07,0.0006952672607149909,0.010326107351443183,-0.00013259539744356683,-9.324449558228603e-06,0.034309415590514654,0.5074748560628272,-0.0064257466241134055,-0.000493634388797361
0.060171919770773644,-2.99996881450294,-2.9995372982868247,1.4999940787515684,-4.256385632054432e-07,0.0015439997643519818,0.022838086953935077,-0.00028920369522303455,-2.219737913785895e-05,0.05045288333820251,0.7415727573463291,-0.009185580579936762,-0.0007999726016197476
0.08022922636103152,-2.9999268008105697,-2.99891725662755,1.4999862883198334,-1.051860296203643e-06,0.0027089783425163,0.03990376751884873,-0.0004980585608544407,-4.156872898428265e-05,0.06593571332686643,0.9628831396625369,-0.011651405567729808,-0.0011431171186317545
0.1002865329512894,-2.9998584345160713,-2.997912480325571,1.4999738469257387,-2.1364838940918773e-06,0.0041770916570645356,0.06126968990831356,-0.0007533399444932963,-6.81530673705957e-05,0.0807680472610374,1.1716351271599224,-0.013829234539587395,-0.0015209121587637427
0.12034383954154729,-2.999757782347813,-2.996439460948416,1.499955883237263,-3.830555513553954e-06,0.005935431203957221,0.08668697746744228,-0.0010493480553452868,-0.0001026218469485013,0.09496002684525708,1.3680578439869806,-0.015725080447611457,-0.001931201940946074
0.14040114613180515,-2.9996191671759025,-2.9944196217718826,1.4999316387156116,-6.298119208093817e-06,0.007971291313238843,0.11591133602431358,-0.00138050336165317,-0.00014560340474831004,0.10852179378402801,1.5523804142921886,-0.017344956243888827,-0.0023718306841091106
0.16045845272206305,-2.9994371639555126,-2.9917792261303804,1.4999004652100356,-9.715354615607692e-06,0.010272169149045846,0.1487030538899739,-0.0017413465907032194,-0.00019768296217893952,0.12146348978189192,1.7248319622240271,-0.018694874880520573,-0.002840642607183214
0.18051575931232094,-2.999206595670184,-2.9884492857672615,1.4998618225526474,-1.4269714645956233e-05,0.012825764709604406,0.18482700185844098,-0.002126538728823224,-0.0002594026250279147,0.1337952565433691,1.8856416119309771,-0.01978084930959978,-0.0033354819290987445
0.2005730659025788,-2.9989225292751556,-2.9843654691851733,1.4998152761532442,-2.0159063168536656e-05,0.015619980827234427,0.22405263320670385,-0.002530861021384039,-0.0003312613834613678,0.14552723577297993,2.035038487561517,-0.020608892483221272,-0.003854192868786065
0.22063037249283668,-2.998580271640679,-2.9794680099963915,1.499760494594124,-2.759081269985491e-05,0.018642923168341985,0.26615398369471666,-0.002949214972796479,-0.0004137151120240382,0.15666956917526068,2.1732517132641425,-0.02118501735348252,-0.004394619645175539
0.24068767908309457,-2.998175365495337,-2.9737016152731632,1.499697247224908,-3.678106209109782e-05,0.021882900233425994,0.31090967156540655,-0.0033766223465148716,-0.0005071765696392728,0.16723239845472987,2.3005104131873177,-0.021515236872475668,-0.004954606477197525
0.26074498567335247,-2.997703585369359,-2.9670153738980476,1.4996254017573558,-4.7953734215705134e-05,0.025328423357075573,0.35810289754466856,-0.0038082251650344047,-0.000612015399609025,0.1772258653159185,2.417043711479538,-0.021605563992300958,-0.005531997583782387
0.2808022922636103,-2.9971609335379465,-2.959362664914256,1.4995449218601884,-6.133971365694188e-05,0.02896820670797219,0.40752144484137176,-0.004239285709893535,-0.0007285581296138566,0.18666011146334704,2.5230807322892805,-0.02146201166504963,-0.006124637183860486
0.3008595988538682,-2.9965436359645814,-2.950701065875994,1.499455864753905,-7.717598439547027e-05,0.03279116728888242,0.4589576791473478,-0.004665186521670257,-0.0008570881717129354,0.1955452786015427,2.6188505997650258,-0.021090592842817363,-0.006730369496362186
0.3209169054441261,-2.9958481382443534,-2.940992261198799,1.4993583788056026,-9.570476749692204e-05,0.03678642493666831,0.5122085486374025,-0.005081430399986611,-0.0009978458223440373,0.20389150843503578,2.7045824380552617,-0.02049732047770303,-0.007347038740217844
0.340974212034384,-2.9950711015472704,-2.930201950509882,1.4992527011237953,-0.00011717265879947038,0.040943302322283055,0.5670755839693118,-0.00548364040350665,-0.001151028262323545,0.21170894266834395,2.7805053713084593,-0.019688207521796675,-0.007972489134357824
0.3610315186246419,-2.994209398561583,-2.918299756998471,1.4991391551532334,-0.00014182976660140237,0.04525132495076499,0.6233648982838177,-0.00586755984993418,-0.0013167895568464486,0.21900772300600424,2.8468485236731103,-0.018669266927199668,-0.008604564897712488
0.38108882521489973,-2.9932601094371014,-2.905259135766151,1.4990181482697245,-0.00016992884934869082,0.0497002211612481,0.6808871872046349,-0.006229052316016732,-0.001495240655486345,0.2257979911525292,2.9038410192976936,-0.01744651164600114,-0.0092411102492122
0.4011461318051576,-2.992220517728506,-2.8910572821771954,1.4988901693749475,-0.00020172445332256674,0.05427992212695536,0.7394577288384483,-0.00656410163754418,-0.0016864493921954398,0.23208988881245507,2.9517119823306874,-0.01602595463030121,-0.009879969407787317
0.4212034383954155,-2.9910881063386787,-2.8756750402089235,1.498755786491278,-0.000237472050327091,0.0589805618551993,0.7988963837749087,-0.006868811909346281,-0.0018904404853045428,0.23789355769030252,2.990690536920578,-0.014413608832192726,-0.010518986592368199
0.44126074498567336,-2.989860553462013,-2.859096810802028,1.4986156443566039,-0.00027742717537672726,0.06379247718738365,0.8590275950866405,-0.007139407485296359,-0.0021071955375230756,0.2432191394905988,3.0210058072158477,-0.012615487203772091,-0.011156006021885222
0.46131805157593125,-2.9885357285277294,-2.8413104602109156,1.4984704620191436,-0.00032184456438391303,0.06870620779900241,0.9196803883292348,-0.007372232978308774,-0.0023366530359390627,0.24807677591786992,3.042886917364975,-0.010637602697134929,-0.011788871915268728
0.48137535816618915,-2.9871116881432007,-2.8223072283540582,1.498321030432269,-0.00037097729184663294,0.07371249619964196,0.9806883715412558,-0.007563753260341019,-0.0025787083520191377,0.2524766086766397,3.056562991516445,-0.00848596826437542,-0.012415428491449094
0.501432664756447,-2.985586672037267,-2.8020816371643225,1.4981682100493208,-0.00042507590853599,0.07880228773297582,1.0418897352442325,-0.007710553462390718,-0.0028332137416085413,0.2564287794714385,3.0622631538187384,-0.0061665968575908,-0.01303351996935667
0.5214899713467049,-2.9839590990035534,-2.780631398939316,1.4980129284184305,-0.00048438757918377827,0.08396673057676973,1.103127252442667,-0.007809338974498273,-0.003099978344931121,0.25994343000678777,3.060216528420335,-0.0036855014288740273,-0.01364099056792183
0.5415472779369628,-2.982227562843787,-2.7579573246917244,1.497856177777337,-0.0005491552201700549,0.08919717574288089,1.1642482786240307,-0.007856935445746643,-0.0033787681865893333,0.26303070198721246,3.0506522394697173,-0.0010486949303211146,-0.014235684506074925
0.5616045845272206,-2.980390828311124,-2.734063232499662,1.49769901264821,-0.0006196166372107123,0.09448517707725565,1.2251047517587643,-0.007850288784259613,-0.003669306175564241,0.2657007371172433,3.0337994111153725,0.0017378096859705927,-0.014815446002746322
0.5816618911174786,-2.9784478270534493,-2.708955855856992,1.4975425474324615,-0.0006960036630450497,0.0998224912599317,1.285553192300277,-0.007786465157203604,-0.003971272105215512,0.267963677101404,3.009887167505776,0.004667999467906969,-0.015378119276866381
0.6017191977077364,-2.9763976535567176,-2.6826447520236916,1.4973879540055748,-0.0007785412951233464,0.10520107780503613,1.3454547031849504,-0.007662650990786279,-0.004284302653281424,0.2698296636442188,2.9791446327894127,0.007735861463393001,-0.01592154854736547
0.6217765042979944,-2.9742395610882517,-2.655142210376174,1.497236459311915,-0.0008674468332944328,0.11061309906078787,1.4046749698321321,-0.007476152970257971,-0.004607991381878861,0.2713088384502145,2.941800931114766,0.010935382720333564,-0.016443578033173933
0.6418338108882522,-2.971972957640073,-2.626463160757637,1.4970893429595542,-0.0009629290174932633,0.1160509202094957,1.463084260144142,-0.007224398039910346,-0.004941888737503313,0.272411343223915,2.8980851866303126,0.014260550286633089,-0.01694205195322215
0.66189111747851,-2.969597401872218,-2.5966250818284045,1.496947934815087,-0.0010651871654284893,0.12150710926755953,1.5205574245062696,-0.006904933403077573,-0.005285502051028883,0.27314731966984973,2.8482265234845396,0.017705351210195674,-0.017414814526440482
0.681948424068768,-2.967112599056046,-2.565647909416259,1.4968136125984488,-0.001174410310270027,0.12697443708546863,1.5769738957867718,-0.006515426522134937,-0.00563829553770827,0.273526909492543,2.792454065825926,0.021263772538925974,-0.01785970997175928
0.7020057306590258,-2.964518397017577,-2.5335539448667994,1.4966877994777432,-0.0012907763383366365,0.13244587734780333,1.6322176893368778,-0.0060536651185001955,-0.005999690297172792,0.2735602543965181,2.730996937802956,0.024929801320729972,-0.01827458250810891
0.7220630372492838,-2.961814782080787,-2.500367763393755,1.4965719616640478,-0.001414451126783488,0.13791460657323484,1.6861774029907841,-0.005517557172632692,-0.0063690643134323675,0.2732574960863041,2.664084263564107,0.028697424603510657,-0.018657276354419737
0.7421203438395416,-2.9590018750109484,-2.466116122429356,1.496467606006247,-0.0015455876812897381,0.1433740041145244,1.7387462170656591,-0.00490513092403394,-0.006745752454875527,0.27262877626642656,2.591945167257867,0.032560629435172794,-0.019005635729622113
0.7621776504297995,-2.9560799269579294,-2.4308278699746513,1.4963762775858391,-0.001684325273746097,0.14881765215852394,1.7898218943616395,-0.0042145348712469555,-0.007129046474269399,0.27168423664140917,2.5148087730327138,0.036513402863622035,-0.01931750485264642
0.7822349570200574,-2.9530493153995243,-2.3945338529498588,1.496299557311765,-0.0018307885799424062,0.15423933572617654,1.8393067801618317,-0.0034440377718576443,-0.007518195008759731,0.2704340189157781,2.4329042050371292,0.0405497319367627,-0.019590727942422993
0.8022922636103152,-2.9499105400847663,-2.357266825544706,1.4962390595152224,-0.001985086817255207,0.15963304267251444,1.8871078022323116,-0.0025920286424925276,-0.007912403579870868,0.26888826479406247,2.3464605874196,0.04466360370249811,-0.019823149217882217
0.8223495702005731,-2.946664218977245,-2.319061357568766,1.4961964295444847,-0.002147312882335316,0.16499296368666183,1.9331364708221257,-0.0016570167588210172,-0.008310834593505774,0.26705711598078397,2.2557070443286014,0.04884900520873492,-0.020012612897954436
0.842406876790831,-2.9433110841984336,-2.2799537428018084,1.4961733413597247,-0.0023175424887953906,0.1703134922918328,1.9773088786632893,-0.0006376316555538608,-0.008712607339946006,0.264950714180471,2.1608726999126198,0.053099923503376445,-0.020156963201570035
0.8624641833810889,-2.9398519779709904,-2.239981907344122,1.4961714951278255,-0.0024958333048975077,0.17558922484533013,2.0195457009707867,0.0004673768735563577,-0.009116797993851733,0.2625792010976471,2.062186678320134,0.057410345634327786,-0.02025404434765935
0.8825214899713467,-2.9362878485620967,-2.199185317966877,1.496192614817211,-0.0026822240912407385,0.18081496053855184,2.059772195442575,0.0016591387757139975,-0.009522439614261743,0.2599527184368391,1.959878103699628,0.06177425864949382,-0.02030170055515276
0.9025787965616047,-2.932619746226755,-2.1576048904624474,1.4962384457926539,-0.0028767338384487057,0.18598570139698112,2.097918202259576,0.0029386637390834136,-0.009928522144593412,0.25708140790257383,1.854176100199585,0.06618564959677875,-0.020297776042980612
0.9226361031518625,-2.9288488191511264,-2.1152828979947627,1.496310752410101,-0.0030793609048571746,0.191096652280195,2.133918144085684,0.00430684119278546,-0.010333992412642731,0.2539754111993755,1.745309791968484,0.07063850552408724,-0.02024011503007327
0.9426934097421205,-2.9249763093958325,-2.0722628794496436,1.496411315611492,-0.0032900821542016126,0.19614322088185987,2.167711026067764,0.005764440306899821,-0.010737754130584308,0.2506448700317718,1.6335083031548088,0.0751268134793237,-0.02012656173536111
0.9627507163323783,-2.9210035488392836,-2.0285895477851423,1.496541930519577,-0.0035088520933047665,0.20112101772973323,2.199240435835649,0.0073121099924639,-0.011138667894971347,0.24709992610428655,1.519000757907039,0.07964456051039348,-0.01995496037777448
0.9828080229226361,-2.9169319551209973,-1.9843086983818898,1.496704404032738,-0.003735602009764232,0.20602585618566283,2.2284545435021426,0.008950378901473655,-0.011535551186735663,0.24335072112144607,1.4020162803736587,0.08418573366520099,-0.019723155176243765
1.002865329512894,-2.9127630275849055,-1.9394671173934241,1.4969005524198031,-0.003970239109640025,0.21085375244558624,2.2553061016630154,0.01067965542688265,-0.011927178371187671,0.23940739678777767,1.2827839947031507,0.08874431999164978,-0.01942899034969929
1.022922636103152,-2.9084983432226883,-1.894112490096545,1.4971321989148731,-0.0042126456551421654,0.2156009255395317,2.2797524453970115,0.012500227702603284,-0.012312280698016414,0.23528009480780376,1.1615330250439935,0.09331430653764694,-0.019070310117071446
1.0429799426934099,-2.9041395526170763,-1.8482933092416407,1.4974011713121322,-0.004462678102318226,0.22026379733161994,2.30175549226584,0.014412263603505004,-0.012689546301289507,0.23097895688605385,1.0384924955446702,0.09788968035109447,-0.018644958697290572
1.0630372492836677,-2.899688375885188,-1.8020587834030444,1.4977092995606776,-0.004720166238740933,0.2248389925200589,2.3212817423141865,0.016415810745416204,-0.013057620199453215,0.22651412472705346,0.9138915303536679,0.10246442847989723,-0.01815078030928705
1.0830945558739256,-2.8951465986218246,-1.755458745329355,1.4980584133593253,-0.004984912321195707,0.22932333863715004,2.3383022780696985,0.01851079648512277,-0.013415104295332374,0.22189574003532497,0.7879592536194598,0.10703253797196188,-0.017585619171991227
1.1031518624641834,-2.890516067842809,-1.7085435602937997,1.4984503397514433,-0.00525669021336827,0.23371386604928412,2.3527927645429996,0.020697027920368982,-0.01376055737613045,0.21713394451539525,0.6609247894905326,0.11158799587519241,-0.01694731950433348
1.1232091690544412,-2.885798687928291,-1.661364034444556,1.4988869007197596,-0.005535244523532183,0.23800780795694143,2.364733449227679,0.02297419188985761,-0.014092495113429504,0.21223887987179424,0.5330172621153685,0.11612478923749192,-0.01623372552524416
1.1432664756446993,-2.880996416566072,-1.6139713231551025,1.499369910781188,-0.0058202897422364435,0.24220260039469488,2.374109162100296,0.02534185497324848,-0.014409390063190211,0.20722068780904213,0.40446579564244717,0.12063690510676683,-0.01544268145365363
1.1633237822349571,-2.8761112606949197,-1.566416839374558,1.4999011745816442,-0.0061115093799930485,0.24629588223120558,2.3809093156203818,0.027799463491160914,-0.014709671665751848,0.20208951003166753,0.27549951422025265,0.12511833053092092,-0.014572031508492246
1.183381088825215,-2.8711452724478876,-1.518752161978017,1.500482484490866,-0.0064085551049645586,0.25028549516922727,2.3851279047304343,0.030346343505170625,-0.014991726245832294,0.1968554882441973,0.146347541997267,0.12956305255785816,-0.013619619908690392
1.2034383954154728,-2.866100545095635,-1.4710289441168993,1.5011156181972325,-0.006711045880651694,0.2541694837456032,2.3867635068559236,0.03298170081781304,-0.01525389701252806,0.19152876415115427,0.01723900312196794,0.13396505823548477,-0.012583290873178386
1.2234957020057307,-2.8609792089897423,-1.4232988215692832,1.5018023363025834,-0.007018567103580868,0.25794609533126667,2.385819281905288,0.03570462097258087,-0.015494484059314235,0.1861194794570662,-0.11159697825715657,0.13831833461170406,-0.011460888620886636
1.2435530085959887,-2.8557834275060303,-1.375613321090249,1.5025443799170373,-0.007330669740991806,0.26161378013124215,2.382302972269935,0.038514069253924754,-0.015711744364044534,0.18063777586645946,-0.2399312779916271,0.14261686873442136,-0.010250257370745485
1.2636103151862466,-2.850515392987877,-1.3280237687622178,1.5033434682538112,-0.007646869468525075,0.2651711911846448,2.3762269028242433,0.04140889068725351,-0.01590389178895126,0.17509379508385736,-0.36753477193296336,0.14685464765154177,-0.008949241341685295
1.2836676217765044,-2.845177322689541,-1.2805811983452957,1.5042012962240405,-0.007966645807909685,0.2686171843646801,2.3676079809255604,0.04438781003893488,-0.01606909708064535,0.16949767881378852,-0.49417833593268123,0.15102565841096793,-0.007555684752636424
1.3037249283667622,-2.8397714547194712,-1.2333362596276098,1.5051195320315973,-0.00828944126465065,0.27195081837864366,2.3564676964142035,0.047449431816293686,-0.016205487870116334,0.16385956876077712,-0.6196328458422984,0.15512388806060629,-0.006067431822529234
1.32378223495702,-2.8343000439836343,-1.186339126775653,1.5060998147679097,-0.008614660465716555,0.27517135476792154,2.3428321216134593,0.05059224026761311,-0.016311148672732336,0.15818960662934867,-0.7436691775133377,0.1591433236483617,-0.004482326770294098
1.3438395415472781,-2.8287653581288237,-1.1396394066846214,1.5071437520067807,-0.00894166929722714,0.27827825790799143,2.3267319113295835,0.053814599382135064,-0.016384120888240112,0.15249793412402823,-0.8660582067973128,0.16307795222213795,-0.002798213814861345
1.363896848137536,-2.823169673485986,-1.0932860473287578,1.5082529173992087,-0.00926979404214086,0.28127119500842057,2.308202302851803,0.05711475289005841,-0.016422402800765006,0.14679469294934444,-0.9865708095457416,0.16692176082983967,-0.00101293717516138
1.3839541547277938,-2.817515271013534,-1.04732724611169,1.5094288482682043,-0.009598320517942465,0.2841500361128664,2.287283115952314,0.06049082426254082,-0.016423949578810985,0.14109002480982236,-1.1049778616101449,0.17066873651937087,0.0008756589298754434
1.4040114613180517,-2.8118044322406677,-1.001810358216772,1.5106730432036124,-0.009926493214330572,0.286914854099078,2.264018752886281,0.06394081671169816,-0.016386673275260607,0.13539407140998594,-1.2210502388420388,0.17431286633863774,0.0028697302813187756
1.4240687679083095,-2.806039435210688,-0.9567818049574245,1.511986959656928,-0.010253514430905235,0.28956592467889397,2.238458198391839,0.06746261319060398,-0.01630844282737506,0.12971697445436137,-1.3345588170929412,0.17784813733554428,0.004971432660238266
1.4441260744985676,-2.8002225504243223,-0.9122869821274766,1.513372011536119,-0.01057854341485552,0.2921037263982442,2.210655019690093,0.07105397639329003,-0.016187084056794112,0.12406887564747504,-1.4452744722143707,0.18126853655799535,0.007182921847703536
1.4641833810888254,-2.794356036783036,-0.8683701683515053,1.5148295668004426,-0.01090069549864707,0.2945289406371483,2.180667366485117,0.07471254875474664,-0.016020379669536153,0.11845991669385336,-1.552968080057847,0.1845680510538945,0.009506353624784216
1.4842406876790832,-2.788442137532353,-0.8250744334351763,1.5163609450552649,-0.011219041237709683,0.296842451609717,2.1485579709639557,0.07843585245092166,-0.015806069255998176,0.11290023929802095,-1.6574105164748858,0.1877406678711473,0.011943883772549967
1.504297994269341,-2.7824830762051755,-0.782441546715584,1.5179674151468814,-0.011532605548124887,0.29904534636415114,2.1143941477966215,0.08222128939872109,-0.015541849290955784,0.10739998516450466,-1.7583726573170073,0.19078037405765835,0.014497668072070449
1.524355300859599,-2.7764810525650994,-0.7405118854115949,1.5196501927573345,-0.011840366844313496,0.3011389147827428,2.078247794136098,0.08606614125600887,-0.01522537313356319,0.10196929599783089,-1.8556253784357277,0.19368115666133123,0.017169862304415237
1.5444126074498568,-2.770438238549737,-0.6993243429741847,1.5214104379992346,-0.012141256176723215,0.30312464958187313,2.0401953896183374,0.08996756942160822,-0.014854251027353216,0.09661831350252181,-1.9489395556825668,0.19643700273007303,0.01996262225065398
1.5644699140401148,-2.7643567742140256,-0.65891623743678,1.5232492530105772,-0.01243415636951617,0.3050042463120164,2.0003179963622646,0.09392261503529808,-0.014426050100237274,0.09135717938310717,-2.038086064909041,0.19904189931178595,0.02287810369185636
1.5845272206303727,-2.7582387636735595,-0.6193232197655998,1.5251676795495628,-0.012717901158256512,0.3067796033577337,1.9587012589697685,0.09792819897781868,-0.013938294364505404,0.08619603534411158,-2.1228357819666686,0.20148983345437543,0.025918462409091972
1.6045845272206305,-2.7520862710478955,-0.5805791822099958,1.5271666965894173,-0.012991274327597984,0.30845282193768053,1.9154354045257131,0.1019811218708655,-0.01338846471682625,0.08114502309006055,-2.202959582706969,0.20377479220574624,0.029085854183430498
1.6246418338108883,-2.74590131640388,-0.5427161666527924,1.5292472179132095,-0.01325300884897148,0.3100262061045993,1.8706152425979286,0.10607806407709286,-0.012773998938247036,0.07621428432547961,-2.27822834298146,0.2058907626138029,0.03238243479594153
1.6446991404011462,-2.7396858716989607,-0.5057642729606272,1.5314100897086709,-0.013501786018272625,0.3115022627453259,1.8243401652372162,0.1102155857001148,-0.012092291694193626,0.0714139607548947,-2.3484129386416583,0.20783173172645053,0.035810360027694776
1.6647564469914042,-2.733441856724509,-0.4697515673342939,1.533656088163014,-0.013736234593549342,0.3128837015807857,1.7767141469773469,0.11439012658450065,-0.011340694534470496,0.06675419408283123,-2.4132842455390833,0.20959168659159333,0.03937178565975981
1.684813753581662,-2.7271711350491383,-0.43470399065907916,1.5359859170577541,-0.013954929932689448,0.31417343516599283,1.7278457448350608,0.11859800631578121,-0.010516515893260695,0.0622451260138156,-2.4726131395252544,0.21116461425713573,0.04306886747320625
1.70487106017192,-2.7208755099620183,-0.4006452668551058,1.5384002053635255,-0.014156393131108188,0.3153745788900548,1.6778480983100683,0.12283542422044191,-0.009617021089125904,0.05789689825237371,-2.5261704964516847,0.21254450177098289,0.0469037612491038
1.7249283667621778,-2.714556720416197,-0.3675968112276728,1.5408995048349015,-0.014339090159435835,0.3164904509761688,1.6268389293850483,0.12709845936592834,-0.008639432325006406,0.05371965250303096,-2.5737271921698976,0.21372533618103856,0.05087862276852205
1.7449856733524356,-2.708216436971917,-0.33557763881759595,1.5434842876052153,-0.014501431001205255,0.31752457248162047,1.5749405425256504,0.13138307056064402,-0.00758092868822109,0.04972353047031386,-2.6150541025314102,0.21470110453520824,0.05499560781253066
1.7650429799426934,-2.701856257739935,-0.3046042727515482,1.5461549437813757,-0.01464176879053947,0.3184806672977891,1.5222798246804938,0.1356850963539502,-0.006438646150467452,0.045918673858747316,-2.649922103387739,0.21546579388139653,0.05925687216219928
1.7851002865329515,-2.695477704324838,-0.2746906525924,1.54891177903869,-0.014758398949839255,0.31936266215014175,1.468988245281165,0.14000025503616587,-0.005209677567821572,0.04231522437285673,-2.6781020705904024,0.21601339126750782,0.06366457159859756
1.8051575931232093,-2.689082217768365,-0.24584804268956156,1.551755012215681,-0.014849558327470667,0.320174686598238,1.4152018562422244,0.14432414463856946,-0.0038910726807382025,0.03892332371716922,-2.6993648799909185,0.216337883741446,0.0682208619027951
1.8252148997134672,-2.6826711544927204,-0.21808494052932123,1.5546847729089066,-0.014913424335452669,0.3209210730357266,1.3610612919611988,0.14865224293339563,-0.002479838114050644,0.035753113596209474,-2.7134814074408062,0.21643325835111743,0.07292789885586153
1.845272206303725,-2.676245782243896,-0.19140698508518714,1.5577010990677786,-0.014948114087144663,0.321606356690348,1.3067117693185863,0.15297990743383827,-0.0009729373769708199,0.03281473571450455,-2.7202225287915827,0.2162935021444255,0.0777878382388665
1.8653295128939829,-2.669807276034988,-0.16581686516822813,1.5608039345893827,-0.014951683534934073,0.3222352756239317,1.2523030876778531,0.1573023753940499,0.0006327091369107313,0.030118331776579632,-2.719359119894768,0.21591260216927455,0.08280283583287967
1.885386819484241,-2.663356714089514,-0.14131422777741387,1.5639931269132972,-0.01492212660792393,0.3228127707324,1.1979896288854361,0.16161476380913875,0.002340224149624882,0.02767404348696023,-2.710662056601878,0.21528454547357023,0.08797504741897066
1.9054441260744988,-2.6568950737847334,-0.11789558644995546,1.5672684246164121,-0.014857374349620428,0.3233439857457632,1.1439303572707418,0.16591206941517456,0.004152773498823876,0.025492012550172305,-2.6939022147644307,0.21440331910521637,0.09330662877820911
1.9255014326647566,-2.6504232275949637,-0.09555422961164617,1.5706294750077485,-0.014755294055620502,0.3238342672281225,1.0902888196461453,0.17018916868918232,0.006073566137781389,0.023582380670742698,-2.668850470233945,0.2132629101121174,0.09879973569166474
1.9455587392550144,-2.6439419390349013,-0.07428012892720266,1.5740758217232769,-0.014613688411299397,0.3242891645776722,1.0372331453069936,0.174440817849147,0.008105854135392398,0.02195528955319359,-2.63527769886194,0.21185730554218019,0.10445652394040705
1.9656160458452723,-2.637451858602935,-0.05405984765060426,1.5776069023207377,-0.014430294629498254,0.3247144300266931,0.9849360460316011,0.17866165285401037,0.010252932676173374,0.020620880902054495,-2.5929547764999326,0.2101804924433066,0.11027914930550574
1.9856733524355303,-2.630953519724469,-0.03487644897543456,1.5812220458744601,-0.014202783588211662,0.3251160186415605,0.9335748160812527,0.18284618940367237,0.012518140060262134,0.019589296421851365,-2.5416525789994404,0.20822645786340144,0.11626976756803045
2.005730659025788,-2.624447334695238,-0.016709404385221727,1.58492047057018,-0.013928758968275239,0.3255000883227359,0.8833313322002033,0.18698882293899266,0.014904857703417883,0.018870677817106163,-2.4811419822119833,0.20598918885037243,0.12243053450905081
2.025787965616046,-2.6179335906246277,0.0004654979962208372,1.5887012812998604,-0.013605756391053209,0.32587299980477735,0.8343920536156768,0.1910838286417862,0.017416510137021265,0.018475166792345732,-2.411193861989078,0.20346267245212246,0.1287636059096364
2.045845272206304,-2.611412445378991,0.016676245054453892,1.5925634672565105,-0.013231242556125976,0.32624131665632694,0.7869480220378665,0.1951253614348285,0.020056565008074248,0.018412905052101358,-2.3315790941822416,0.20064089571655397,0.135271137550857
2.0659025787965617,-2.6048839235249672,0.031954690334071785,1.5965058995290045,-0.012802614378977673,0.32661180528012235,0.7411948616599364,0.19910745598185176,0.02282853307920023,0.01869403430089367,-2.242068554642995,0.19751784569157316,0.14195528521378215
2.0859598853868198,-2.5983479122728,0.046336645688362016,1.6005273286969002,-0.012317198128683756,0.3269914349129872,0.6973327791580188,0.2030240266875476,0.025735968228644053,0.0193286962432504,-2.142433119222854,0.19408750942508401,0.14881820467948162
2.1060171919770774,-2.5918041574196553,0.059861972928963905,1.6046263824252593,-0.011772248565598593,0.3273873776258389,0.6555665636912177,0.20686886769756518,0.028782467450271822,0.02032703258369306,-2.0324436637733374,0.1903438739649954,0.15586205172902481
2.1260744985673354,-2.585252259292941,0.0725746754755291,1.6088015630594665,-0.011164948079042988,0.3278070083236857,0.6161055869016046,0.21063565289850972,0.03197167085357114,0.021699185026752943,-1.9118710641459646,0.18628092635920623,0.1630889821434815
2.1461318051575935,-2.5786916686936214,0.08452299000538008,1.6130512452200472,-0.010492405824991795,0.3282579047456238,0.5791638029142214,0.21431793591794746,0.03530726166365096,0.023455295276955113,-1.7804861961922513,0.18189265365562335,0.17050115170392136
2.166189111747851,-2.5721216828395415,0.09575947810316997,1.6173736733974886,-0.009751656863761463,0.32874784746484154,0.5449597483370799,0.21790915012440193,0.03879296622124166,0.025605505038821086,-1.6380599357637173,0.1771730429021532,0.1781007161914139
2.186246418338109,-2.5655414413087385,0.10634111791054184,1.6217669595470576,-0.008939661297697627,0.3292848198886176,0.5137165422611614,0.22140260862735417,0.042432553982695,0.028159956016880372,-1.4843631587118804,0.17211608114669774,0.18588983138702886
2.206303724928367,-2.558949921982765,0.116329395775788,1.6262290806836202,-0.008053303408862674,0.32987700825832134,0.4856618862604167,0.22479150427724282,0.046229837519984086,0.031128789915656263,-1.3191667408882586,0.16671575543716433,0.19387065307183587
2.226361031518625,-2.552345936990004,0.12579039790350968,1.6307578764764605,-0.0070893907967233,0.3305328016494127,0.461028064391766,0.22806890966546567,0.05018867252070356,0.034522148439680045,-1.1422415581443668,0.16096605282145315,0.2020453370269047
2.2464183381088825,-2.54572812864899,0.13479490200427577,1.6353510468441008,-0.0060446535158381305,0.33126079197143965,0.4400519431951,0.2312277771243792,0.054312957788069195,0.038350173293467904,-0.9533584863317291,0.15486096034747376,0.21041603903330464
2.2664756446991405,-2.5390949654117234,0.1434184689442831,1.6400061495491198,-0.004915743213545225,0.3320697739680455,0.4229749716932784,0.23426093872729625,0.05860663524091841,0.042623006181560896,-0.7522884013018605,0.14839446506312637,0.21898491487210564
2.2865329512893986,-2.532444737806993,0.15174153439501517,1.6447205977929722,-0.0036992322676496965,0.3329687452169604,0.4100431813921304,0.2371611062884883,0.06307368991370989,0.04735078880847077,-0.53880217890628,0.14156055401631917,0.2277541203243772
2.306590257879656,-2.5257755543836917,0.15984950048290192,1.6494916578108072,-0.002391612924111266,0.33396690613000746,0.4015071862804551,0.23992087136318474,0.06771814995652375,0.05254366287872436,-0.312670694996504,0.13435321425495417,0.236725811171189
2.3266475644699143,-2.519085337654134,0.16783282743897876,1.6543164464662883,-0.0009892964347318388,0.335073659953097,0.39762218283002143,0.24253270524757448,0.07254408663506151,0.058211770096853854,-0.07366482542405184,0.12676643282694045,0.24590214319361062
2.346704871060172,-2.5123715041795447,0.17578650089553968,1.659191814592035,0.0005112926117168485,0.33644053737277324,0.39836657440354334,0.24493762334774727,0.07751280441874542,0.1068158428633891,0.09378169491529521,0.10344079491639038,0.24245856920365794
2.36676217765043,-2.5056125947622565,0.1837727515124701,1.6641077042859171,0.002108135331419858,0.339881935105997,0.4002664497032804,0.24647558694451968,0.08207711198316812,0.2362768245404507,0.09617050301679225,0.050712535258826165,0.21415163582842
2.386819484240688,-2.4987593822796703,0.19179746334816755,1.6690439498571494,0.003790674332313158,0.345850077450981,0.4022119980362689,0.24698029740732796,0.08608599522366653,0.35950787070597773,0.09834983792638156,0.00011017298540410593,0.1869135082208325
2.4068767908309456,-2.4917625707999855,0.1998615083045331,1.6739803092991157,0.0055480138376356345,0.35422141969748583,0.40419908031982854,0.2464939541717879,0.08956067254017015,0.476614381358965,0.10032473775988691,-0.04839814311028595,0.16072841483854988
2.4269340974212037,-2.4845753142056077,0.20796567650943718,1.6788973782236698,0.007369679284316297,0.36487452513524854,0.406223658233596,0.24505811964939198,0.0925220469017616,0.587701756498402,0.10210024063313447,-0.09484426423464706,0.135580584139227
2.4469914040114613,-2.4771531740331474,0.2161106783319664,1.6837765771206559,0.009245611014357339,0.3776900650539917,0.40828179421952443,0.24271371922750132,0.09499070584667667,0.6928753961232779,0.10368138466194976,-0.13926004159409122,0.11145424458051854
2.4670487106017194,-2.4694540773134213,0.22429714639766943,1.688600138617423,0.011166157966217194,0.39255081874341,0.4103696514818834,0.2395010412693519,0.09698692148230416,0.7922407002325716,0.1050732079621581,-0.18167732639501433,0.08833362462007925
2.4871060171919774,-2.461438274411453,0.23252563760380357,1.6933510947383432,0.013122071366193613,0.40934167349318396,0.4124834939872589,0.23545973711404866,0.09853065048518601,0.8859030688252816,0.10628074864958456,-0.22212796984382654,0.06620295271556399
2.507163323782235,-2.453068296866472,0.24079663513458105,1.6980132641643313,0.015104498419806715,0.4279496245929715,0.41461968646455377,0.23062882107657048,0.09964153410101727,0.97396790190039,0.10730904484005599,-0.26064382314692924,0.04504645732462741
2.527220630372493,-2.4443089152319137,0.24911055047641495,1.7025712394923576,0.01710497600318203,0.44826377533240847,0.41677469440498677,0.22504667044776608,0.10033889814464597,1.056540599456888,0.10816313464939703,-0.2972567375107317,0.02484836690492431
2.5472779369627507,-2.435127096915424,0.25746772543316665,1.7070103744949716,0.01911542435443362,0.470175337001116,0.41894508406209413,0.21875102549435993,0.10064175300007344,1.1337265614937615,0.108848056193433,-0.33199856414163864,0.005592909914109566
2.567335243553009,-2.4254919640188546,0.26586843414139066,1.7113167713798134,0.02112814076504707,0.49357762888868817,0.42112752245172774,0.21177898945894422,0.100568793620454,1.2056311880100001,0.10936884758799029,-0.3649011542460532,-0.012735685190162337
2.587392550143267,-2.415374751178265,0.27431288508558216,1.7154772680491335,0.023135793271262597,0.5183660782847036,0.4233187773520561,0.20416702855998523,0.10013839952809496,1.2723598790045894,0.10973054694889386,-0.39599635903037844,-0.030153189950236355
2.6074498567335245,-2.4047487634039246,0.2828012231134226,1.7194794253593124,0.02513141434545809,0.5444382204787208,0.4255157173035647,0.19595097199182032,0.0993686348144569,1.3340180344765171,0.10993819239196928,-0.42531602970102284,-0.046675375908457786
2.6275071633237825,-2.393589333920311,0.29133353145102636,1.7233115143803746,0.027108394587532187,0.5716936987602738,0.42771531160905496,0.1871660119246597,0.09827724814015337,1.3907110544247792,0.10999682203304209,-0.452892017464392,-0.062318014607171957
2.64756446991404,-2.3818737820061116,0.2999098337181872,1.7269625036555072,0.029060476416287315,0.6000342644188809,0.42991463033364524,0.1778467035045839,0.0968816727349511,1.442544338848352,0.10991147398793782,-0.4787561735268899,-0.07709687758872416
2.667621776504298,-2.3695813708342217,0.308530095943624,1.7304220464605784,0.03098174776081278,0.6293637767440374,0.43211084430477,0.16802696485354668,0.09519902639776981,1.4896232877462336,0.10968718637248218,-0.5029403490949224,-0.09102773639545943
2.6876790830945563,-2.3566932653117534,0.3171942285802281,1.733680468063655,0.03286663575186781,0.6595882030252185,0.43430122511218094,0.15774007706937426,0.09324611149668252,1.532053301117407,0.10932899730250054,-0.5254763953748938,-0.10412636256972317
2.707736389684814,-2.3431924899200216,0.3259020885203087,1.7367287529845181,0.034709900413264626,0.6906156185518821,0.4364831451079454,0.14701868422576217,0.09103941496891507,1.5699397789608613,0.10884194489381838,-0.5463961635732082,-0.11640852765386063
2.727793696275072,-2.3290638865545565,0.3346534811108393,1.739558532254181,0.0365066283532515,0.7223562066134614,0.4386540774064479,0.13589479337228094,0.08859510832084665,1.6033881212755845,0.10823106726226134,-0.5657315048962721,-0.12789000319021693
2.7478510028653296,-2.3142940723650987,0.34344816216870466,1.7421620706744074,0.03825222645589578,0.7547222584993734,0.4408115958843889,0.12439977453437034,0.0859290476280093,1.6325037280605659,0.10750140252365475,-0.5835142705504917,-0.13858656072113743
2.7679083094555876,-2.2988713975956014,0.3522858399959463,1.7445322540772294,0.039942415572467055,0.7876281734990124,0.44295337518078587,0.112564360713344,0.0830567735350884,1.6573919993147905,0.10665798879382477,-0.5997763117422675,-0.14851397178896725
2.7879656160458457,-2.282785903424229,0.3611661773950098,1.746662576584463,0.0415732242128201,0.8209904589017539,0.44507719069697255,0.10041864788638631,0.07999351125592224,1.6781583350372509,0.10570586418859623,-0.6145494796780113,-0.1576880079360517
2.8080229226361033,-2.2660292798033583,0.3700887936839898,1.7485471278672258,0.04314098223677798,0.8547277299969503,0.44718091859659903,0.08799209500655437,0.0767541705735023,1.6949081352269306,0.10465006682379485,-0.6278656255641226,-0.16612444070473592
2.8280802292263614,-2.248594823299583,0.37905326671187806,1.7501805804054589,0.044642314545515205,0.8887607100739388,0.4492625358056326,0.0753135240027761,0.07335334583997313,1.7077467998828206,0.10349563481524648,-0.6397566006070083,-0.17383904163736538
2.848137535816619,-2.230477394933705,0.3880591348738081,1.7515581767474373,0.04607413477294059,0.9230122304220315,0.4513201200123563,0.06241111977985289,0.06980531597663243,1.716779729003907,0.10224760627877638,-0.6502542560130744,-0.18084758227628514
2.868194842406877,-2.211673378020744,0.3971058991263027,1.7526757167692912,0.04743363897708051,0.9574072303305231,0.45335184966736974,0.04931243021845609,0.06612404447393083,1.7221123225891806,0.10091101933021007,-0.6593904429887257,-0.18716583416384042
2.888252148997135,-2.192180636009931,0.4061930250025194,1.7535295449345238,0.04871829933146187,0.9918727570886869,0.4553560039835896,0.03604436617513031,0.06232317939147226,1.7238499806376282,0.09949091208537336,-0.6671970127403674,-0.19280956884237666
2.9083094555873927,-2.1719984703247146,0.4153199446274976,1.7541165375535275,0.049925857816495146,1.0263379659857759,0.45733096293624836,0.022633201482291893,0.058416053358013614,1.722098103148237,0.09799232266009122,-0.6737058164744036,-0.19779455785423886
2.928366762177651,-2.1511275782027575,0.4244860587334044,1.7544340900431021,0.051054319910857564,1.060734120311024,0.45927520726289583,0.00910457294822914,0.05441568357146493,1.7169620901199962,0.09642028917018974,-0.678948705397241,-0.2021365727417723
2.9484240687679084,-2.1295700105359345,0.43369073867478064,1.75448010418597,0.052101948282875954,1.094994591353643,0.4611873184633973,-0.004516519642898814,0.05033477179888926,1.7085473415518926,0.09477984973149417,-0.6829575307152828,-0.20585138504732228
2.9684813753581665,-2.107329129710345,0.44293332844378897,1.7542529753903,0.05306725648191014,1.129054858402827,0.4630659787999358,-0.018205713531059597,0.04618570437650295,1.696959257442916,0.09307604245983037,-0.6857641436349354,-0.20895476631323423
2.988538681948424,-2.0844095674462952,0.45221314668545687,1.7537515799492147,0.053949002629735565,1.162852508747748,0.4649099712970096,-0.03193928298034995,0.04198055220967516,1.6823032377920535,0.09131390547102347,-0.6874003953626043,-0.211462488081853
3.008595988538682,-2.060817182638313,0.46152948871292665,1.7529752623003176,0.05474618311192675,1.1963272376775567,0.4667181797414345,-0.0456941392789936,0.03773107077292843,1.6646846825982933,0.08949847688089896,-0.6878981371046937,-0.21339032189552418
3.02865329512894,-2.0365590191951437,0.47088162852269916,1.7519238222852045,0.055458026269240145,1.229420848481387,0.4684895886823423,-0.05944783073934323,0.03344870010993821,1.644208991860622,0.08763479480528302,-0.6872892200676076,-0.2147540392965927
3.048710601719198,-2.0116432638797472,0.4802688208098815,1.750597502408983,0.05608398608899725,1.2620772524483488,0.47022328343118125,-0.07317854269787952,0.02914456483353305,1.6209815655780302,0.08572789736000053,-0.6856054954577538,-0.21556941182740397
3.068767908309456,-1.9860792041493067,0.4896903029834329,1.748996975099792,0.056623735896467686,1.2942424688675354,0.47191845006171684,-0.08686509751521079,0.0248294741256948,1.595107803749508,0.08378282266087667,-0.6828788144815376,-0.21585221103030344
3.0888252148997135,-1.9598771859952153,0.49914529718141043,1.7471233299683118,0.05707716204625213,1.3258646250280157,0.47357437541002956,-0.10048695457607448,0.02051392173755805,1.5666931063740361,0.08180460882373852,-0.67914102834536,-0.21561820844763582
3.1088825214899716,-1.9330485717830945,0.508633012286217,1.7449780610672943,0.05744435761366568,1.356893956218844,0.4751904470745184,-0.11402421028933507,0.016208085989410835,1.5358428734506098,0.07979829396441007,-0.6744239882556298,-0.21488317562174697
3.1289398280802296,-1.905605698092777,0.5181526459398456,1.7425630541510637,0.05772561608612051,1.3872828057290476,0.476766153415897,-0.12745759808798546,0.011921829770694002,1.5026625049782127,0.07776891619871762,-0.6687595454187507,-0.21366288409498155
3.1489971346704873,-1.8775618335583204,0.5277033865591273,1.7398805739350516,0.057921425054509326,1.416985624847639,0.4783010835571967,-0.14076848842914685,0.007664700540001745,1.467257400955835,0.07572151364248658,-0.662179551041128,-0.2119731054096852
3.1690544412607453,-1.848931136708,0.5372844153509768,1.7369332513553006,0.05803245990458814,1.4459589728636075,0.47979492738376506,-0.1539388887940682,0.003445930325081213,1.429732961382465,0.07366112441154216,-0.6547158563291675,-0.20982961110820295
3.189111747851003,-1.8197286138043118,0.5468949083276392,1.7337240708279889,0.058059577508359474,1.4741615170659241,0.48124747554326597,-0.16695144368812692,-0.0007255642771674272,1.3901945862570888,0.07159278662171031,-0.6464003124892734,-0.20724817273288007
3.209169054441261,-1.7899700766839728,0.5565340383219356,1.730256357508946,0.05800380991545538,1.5015540327435382,0.4826586194456799,-0.17978943464082908,-0.0048411821006907095,1.3487476755786973,0.06952153838881647,-0.6372647707278516,-0.20424456182606196
3.229226361031519,-1.759672100597919,0.5662009770025094,1.7265337645531675,0.05786635804452045,1.528099403185378,0.4840283512633035,-0.19243678020580696,-0.008892637410282235,1.3054976293462754,0.06745241782868572,-0.6273410822513061,-0.20083454993009364
3.2492836676217767,-1.7288519820513146,0.5758948968890748,1.722560260374341,0.05764858537459511,1.5537626196803558,0.48535676393075117,-0.20487803596082327,-0.012871959901582422,1.260549847558816,0.06539046305714447,-0.6166610982660441,-0.19703390858732064
3.2693409742120347,-1.6975276966435362,0.5856149733676597,1.7183401159043497,0.057352011636498265,1.5785107815173576,0.48664405114495213,-0.2170983945077669,-0.016771494701078696,1.2140097302153012,0.06334071219001769,-0.605256669978468,-0.19285840934008777
3.2893982808022924,-1.6657178569081912,0.5953603867058544,1.7138778918528044,0.05697830650421081,1.6023130959852536,0.4878905073651534,-0.22908368547265578,-0.020583902366105203,1.1659826773147226,0.06130820334313092,-0.5931596485949837,-0.1883238237307406
3.3094555873925504,-1.6334416701531056,0.6051303240680579,1.7091784259665506,0.0565292832862584,1.6251408783728922,0.48909652781291785,-0.24082037550563623,-0.02430215888484316,1.1165740888560671,0.05929797463231001,-0.5804018853219972,-0.1834459233016242
3.3295128939828085,-1.6007188963003294,0.6149239815307225,1.704246820289191,0.05600689261709457,1.6469675519691027,0.49026260847212505,-0.2522955682809818,-0.02791955567632069,1.065889364838326,0.057315064173379504,-0.5670152313659151,-0.17824047959508416
3.349570200573066,-1.5675698057261371,0.6247405660976024,1.6990884284206011,0.0554132161484839,1.6677686480626923,0.4913893460889712,-0.263497004497095,-0.0314296995904127,1.0140339052604819,0.055364510082166585,-0.5530315379331385,-0.17272326415346528
3.369627507163324,-1.5340151371010244,0.6345792977149973,1.6937088427764453,0.05475046024088486,1.6875218059424475,0.49247743817196854,-0.2744130618765055,-0.034826512907841084,0.9611131101215268,0.05345135047449534,-0.5384826562300751,-0.16691004851911287
3.3896848137535818,-1.5000760552297174,0.6444394112870027,1.688113881847702,0.05402094965483329,1.706206772897139,0.4935276829919468,-0.28503275516587223,-0.03810423334017464,0.9072323794204484,0.05158062346619219,-0.52340043746313,-0.1608166042343725
3.40974212034384,-1.4657741088911589,0.654320158690751,1.6823095774601664,0.053227121242324836,1.7238054042155113,0.49454097958205084,-0.2953457361359807,-0.04125741402982901,0.8524971131562331,0.04975736717308199,-0.5078167328387078,-0.15445870284158894
3.429799426934098,-1.431131188678525,0.6642208107916636,1.6763021620339855,0.05237151763819864,1.7403016631862938,0.49551832773774346,-0.3053422935817466,-0.044280923550066895,0.7970127113278703,0.04798661971099105,-0.4917633935632135,-0.1478521158831078
3.4498567335243555,-1.3961694848392112,0.6741406594586918,1.67009805584316,0.051456780951519954,1.7556816210981923,0.4964608280168028,-0.3150133533222118,-0.047169945904997665,0.7408845739343484,0.04627341919574435,-0.47527227084305235,-0.14101261490127417
3.4699140401146136,-1.3609114451148427,0.6840790195795672,1.663703854275072,0.050485646456963476,1.769933457239893,0.4973696817393244,-0.32435047820054697,-0.04991998052957779,0.684218100974654,0.044622803743167294,-0.45837521588463015,-0.13395597143843327
3.489971346704871,-1.3253797325812704,0.6940352310760459,1.6571263150899982,0.04946093628619626,1.783047458900064,0.4982461909877196,-0.3333458680840514,-0.052526842289610604,0.6271186924477767,0.043039811469085754,-0.4411040798943511,-0.12669795703693043
3.5100286532951293,-1.2895971834885709,0.7040086609191549,1.6503723456806267,0.04838555311926078,1.7950160213673494,0.4990917586067165,-0.34199235986415133,-0.05498666148174622,0.5696917483527042,0.041529480489325366,-0.4234907140786208,-0.11925434323911084
3.530085959885387,-1.2535867651010486,0.7139987051444404,1.6434489903315783,0.04726247387595812,1.8058336479303772,0.4999078882033602,-0.3502834274564024,-0.05729588383348188,0.5120426686884226,0.04009684891971155,-0.40556696964384265,-0.11164090158731953
3.550143266475645,-1.2173715335372373,0.7240047908672113,1.6363634174789194,0.04609474340723094,1.815496949877752,0.5006961841470116,-0.35821318180048756,-0.05945127050316154,0.4542768534539237,0.03874695487606927,-0.38736469779642535,-0.1038734036239022
3.570200573065903,-1.1809745916098968,0.7340263782977872,1.6291229069696822,0.044885468186546505,1.8240046464980593,0.5014583515693483,-0.36577637086021797,-0.061449898079976126,0.396499702648193,0.03748483647422507,-0.36891574974277086,-0.09596762089120374
3.5902578796561606,-1.1444190466660162,0.7440629627567448,1.6217348373213811,0.04363781000127982,1.8313575650798641,0.5021961963643647,-0.3729683796235327,-0.06328915858396343,0.33881661627021964,0.03631553183000391,-0.35025197668928554,-0.08793932493156954
3.6103151862464187,-1.107727968426813,0.7541140766901635,1.614206672981531,0.042354979644096666,1.8375586409117133,0.5029116251883714,-0.37978523010249976,-0.06496675946600829,0.2813329943189905,0.03524407905923144,-0.33140522984237397,-0.07980428728734469
3.6303724928366763,-1.070924346827735,0.764179291684872,1.606545951587163,0.04104023060433664,1.8426129172821293,0.5036066454599959,-0.386223581333314,-0.06648072360784225,0.22415423679349566,0.03427551627773262,-0.31240736040844275,-0.07157827950087467
3.6504297994269344,-1.0340310498584588,0.7742582204836953,1.5987602712243447,0.03969685275939627,1.846527545479617,0.5042833653601814,-0.3922807293762999,-0.06782938932204391,0.16738574369272158,0.03341488160133399,-0.29329021959389534,-0.06327707311450452
3.6704871060171924,-0.9970707814028907,0.7843505190007,1.5908572776876944,0.038328166066112,1.8493117847926626,0.5049439938321887,-0.3979546073159087,-0.06901141035203875,0.1111329150156552,0.03266721314586096,-0.27408565860513634,-0.05491643967057931
3.69054441260745,-0.9600660390791693,0.7944558883364408,1.5828446517399009,0.036937514252143346,1.8509770025097283,0.5055908405815942,-0.4032437852607199,-0.07002575587209903,0.05550115076128864,0.03203754902713807,-0.25482552864857366,-0.04651215071144475
3.710601719197708,-0.9230390720796628,0.8045740767932074,1.5747300963712405,0.03552825850735588,1.8515366739192587,0.5062263160762914,-0.40814747034344223,-0.07087171048734411,0.0005958509286057012,0.03153092736099228,-0.23554168093060857,-0.038079977779445745
3.7306590257879657,-0.8860118390109709,0.8147048818902707,1.5665213240590927,0.03410377117520432,1.851006382309677,0.5068529315464899,-0.41266550672091096,-0.07154887423374008,-0.05347758448340345,0.0311523862632479,-0.2162659666576494,-0.02963569241692756
3.7507163323782238,-0.8490059657339251,0.8248481523791289,1.5582260440274602,0.0326674294441156,1.8494038189693867,0.5074732989847162,-0.41679837557409083,-0.07205716257810005,-0.10661375547574892,0.030906963849729907,-0.19703023703610156,-0.021195066166235718
3.770773638968482,-0.8120427032035887,0.8350037902587535,1.5498519495064849,0.03122260903887191,1.8467487831867715,0.5080901311458128,-0.42054719510807415,-0.07239680641808399,-0.15870726204944652,0.03079969823626616,-0.1778663432723666,-0.012773870569715065
3.7908309455587395,-0.7751428853092586,0.8451717527908367,1.5414067049919649,0.029772677911993787,1.8430631822501935,0.5087062415469393,-0.42391372055208043,-0.07256835208219876,-0.20965270420550575,0.030835627538680854,-0.15880613657285236,-0.0043878771697110465
3.8108882521489975,-0.7383268867144631,0.8553520545150362,1.5328979335048734,0.028320989935123143,1.8383710314479955,0.5093245444675715,-0.426900344159459,-0.07257266132979817,-0.2593446819449394,0.031019789872799075,-0.13988146814396363,0.003947142491431164
3.830945558739255,-0.7016145806969646,0.8655447692642233,1.5243332038508748,0.02687087859040635,1.8326984540684996,0.5099480549495015,-0.429510095207686,-0.07241091135108288,-0.3076777952687587,0.031357223354446795,-0.12112418919210521,0.012215416871366298
3.851002865329513,-0.6650252969887605,0.8757500321797274,1.5157200178798436,0.025425650661877332,1.8260736814000091,0.5105798887968384,-0.4317466399983658,-0.07208459476710052,-0.3545466441779759,0.031852966099449764,-0.10256615092368249,0.020401174427749056
3.8710601719197713,-0.6285777796160802,0.8859680417265839,1.5070657977453799,0.023988579926840555,1.8185270527308046,0.5112232625760071,-0.43361428185723216,-0.07159551962974556,-0.3998458286736032,0.03251205622363318,-0.0842392045450997,0.028488643618234326
3.891117478510029,-0.5922901447393891,0.8961990617087799,1.4983778731643285,0.022562900847254132,1.8100910153491485,0.5118814936157505,-0.4351179611341449,-0.07094580942175943,-0.44346994875665224,0.03333953184282323,-0.06617520126276255,0.03646205290047676
3.911174785100287,-0.5561798384933868,0.9064434232845,1.4896634686762948,0.02115180226111288,1.8008001245432823,0.5125580000071257,-0.4362632552030936,-0.07013790305673043,-0.48531360442813376,0.034340431072844124,-0.04840599228307774,0.044305630732131125
3.9312320916905446,-0.5202635948270088,0.9167015269813733,1.4809296909031644,0.019758421073831377,1.7906910436014272,0.5132563006035085,-0.43705637846219525,-0.06917455487909376,-0.5252713956890619,0.035519792029523156,-0.030963428812446903,0.05200360557085222
3.9512893982808026,-0.48455739334342623,0.92697384471172,1.4721835158086187,0.01838583594962705,1.7798025438117835,0.5139800150205899,-0.4375041823336947,-0.06805883466413153,-0.5632379225404475,0.036882652828684526,-0.013879362057277966,0.05954020587429482
3.9713467048710607,-0.4490764171400457,0.9372609217877967,1.4634317759576523,0.017037061002903156,1.7681755044625325,0.5147328636363777,-0.43761415526396563,-0.06679412761797276,-0.5991077849833026,0.03843405158615376,0.0028143567760250954,0.06689966010011374
3.9914040114613183,-0.4138350106485119,0.9475633789370437,1.4546811477760924,0.015715039489632,1.7558529128418348,0.5155186675911969,-0.4373944227235089,-0.06538413437759343,-0.6327755830186372,0.04017902641775739,0.019085876481055808,0.07406619670596351
4.011461318051576,-0.3788466374747063,0.9578819143173305,1.4459381388101136,0.014422637498737848,1.742879864237831,0.516341348787688,-0.43685374720695425,-0.06383287101081637,-0.6641359166474662,0.04212261543932039,0.03490334585141153,0.08102404414949899
4.031518624641834,-0.3441238382387458,0.9682173055322033,1.4372090749857576,0.013162637643479993,1.7293035619386399,0.5172049298908084,-0.4360015282330594,-0.06214466901631126,-0.6930833858708002,0.04426985676666784,0.05023491368068457,0.08775743088837504
4.051575931232092,-0.30967818841498723,0.9785704116461302,1.428500087868449,0.011937732752835935,1.7151733172323627,0.518113534327832,-0.4348478023447102,-0.0603241753235948,-0.7195125906896502,0.0466257885156256,0.06504872876247128,0.09425058538024626
4.07163323782235,-0.2755202561720243,0.9889421751997477,1.4198171019225134,0.01075051956288433,1.7005405494070782,0.5190713862883496,-0.4334032431089203,-0.05837635229303052,-0.7433181311050302,0.04919544880201926,0.07931293989036597,0.10048773608276762
4.091690544412608,-0.24165956021268953,0.9993336242251081,1.4111658217706955,0.00960349240818809,1.6854587857508452,0.5200828107242679,-0.4316791611168309,-0.056306477715828814,-0.7643946071179509,0.05198387574167557,0.09299569585796616,0.1064531114535938
4.111747851002866,-0.2081045276140557,1.009745874260924,1.4025517194536752,0.008499036913177497,1.6699836615517034,0.5211522333498105,-0.4296875039837129,-0.054120144814047116,-0.7826366187294238,0.054996107450417775,0.10606514545886186,0.11213093995037954
4.131805157593123,-0.17486245166743308,1.0201801303678162,1.3939800216895857,0.007439423683533165,1.6541729200976716,0.522284180641517,-0.42744085634896356,-0.051823262240589626,-0.7979387659404622,0.05823718204407263,0.11848943748665114,0.11750545003077964
4.151862464183381,-0.14193944971837388,1.0306376891435594,1.385455697133532,0.006426801997569199,1.6380864126767483,0.5234832798382448,-0.4249524398761102,-0.049422054079207564,-0.8101956487520774,0.061712137638465725,0.13023672073492842,0.12256087015244885
4.1719197707736395,-0.10934042100666841,1.0411199407383287,1.3769834436371056,0.005463193497616158,1.621786098576912,0.5247542589411663,-0.4222361132528063,-0.046923059844498946,-0.8193018671652805,0.06542601234942211,0.14127514399728824,0.12728142877304194
4.191977077363897,-0.07706900450634951,1.0516283708699452,1.3685676755079053,0.00455048588140423,1.6053360450861205,0.5261019467137711,-0.4193063721908341,-0.044333134481908815,-0.825152021181085,0.06938384429276857,0.15157285606732696,0.13165135435021358
4.212034383954155,-0.04512753676568987,1.0621645628391239,1.3602125107690521,0.0036904265934461942,1.588802427492312,0.5275312726818651,-0.4161783494261049,-0.04165944836772899,-0.8276407108005006,0.07359067158432855,0.16109800573863664,0.1356548753416186
4.232091690544413,-0.013517009747203379,1.0727301995447185,1.351921758418707,0.0028846165164205222,1.5722535290834037,0.5290472671335711,-0.41286781471865663,-0.03890948730909825,-0.8266625360245414,0.07805153233992933,0.16981874180481404,0.1392762202049119
4.252148997134671,0.017762971332352606,1.0833270654989682,1.3436989056895907,0.0021345036625544742,1.5557597411472934,0.5306550611193279,-0.40939117485265597,-0.036091052544002335,-0.8221120968542184,0.08277146467539684,0.17770321305945513,0.142499617397748
4.2722063037249285,0.048714230161980426,1.093957048842745,1.335547105308497,0.001441376865007087,1.5393935629718578,0.5323598864518916,-0.40576547363639814,-0.033212260741273786,-0.8138839932905442,0.08775550670655446,0.18471956829615288,0.14530929537778184
4.292263610315187,0.07934006149643816,1.104622143360798,1.327469162755815,0.0008063594692523119,1.5232296018449545,0.5341670757063336,-0.4020083919023054,-0.03028154400059216,-0.8018728253345293,0.09300869654922894,0.19083595630850225,0.14768948260266807
4.312320916905445,0.10964527331624208,1.1153244504970012,1.3194675235250415,0.00023040302446201283,1.5073445730544197,0.5360820622200425,-0.39813824750692994,-0.027307649852483806,-0.7859731929871865,0.09853607231924555,0.19602052589009822,0.14962440753006154
4.332378223495702,0.1396362289876638,1.1260661813696005,1.3115442603823029,-0.0002857190251109175,1.4918172998880697,0.5381103800927243,-0.39417399533094977,-0.02429964125832208,-0.7660796962495275,0.10434267213243148,0.2002414258345373,0.1510982986176169
4.35243553008596,0.169320889422732,1.1368496587864583,1.30370106062587,-0.0007414176487495457,1.4767287136337015,0.5402576641863996,-0.3901352272791727,-0.021266896610327178,-0.7420869351225645,0.1104335341046091,0.20346680493541136,0.15209538432298902
4.372492836676218,0.19870885523923132,1.1476773192603,1.2959392133456764,-0.001136294537889803,1.4621618535790897,0.5425296501254073,-0.3860421722805333,-0.018219109731566166,-0.7138895096073097,0.11681369635160643,0.2056648119863187,0.1525998931038326
4.392550143266476,0.2278114089207001,1.1585517150239621,1.2882595966828354,-0.0014701484147374207,1.4482018670119914,0.5449321742964017,-0.38191569628809563,-0.015166289875953151,-0.6813820197047742,0.12348819698924773,0.20680359578085206,0.15259605341780247
4.412607449856734,0.2566415569764336,1.169475516045637,1.2806626650891577,-0.0017429813408848978,1.434936009220141,0.5474711738483533,-0.3777773022790514,-0.012118761728248986,-0.6444590654159703,0.13046207413336053,0.20685130511260752,0.1520680937225533
4.432664756446992,0.28521407210147987,1.180451512044119,1.2731484365866699,-0.001955005025928405,1.422453643491255,0.5501526866925512,-0.3736491302547196,-0.009087165404061574,-0.6030152467419103,0.13774036589976757,0.20577608877517894,0.15100024247573993
4.45272206303725,0.3135455353366422,1.1914826145040525,1.2657164800271294,-0.002106647136084751,1.4108462411130271,0.5529828515025985,-0.36955395724054796,-0.006082456449845617,-0.5569451636836054,0.14532811040429627,0.20354609556216108,0.14937672813501704
4.472779369627507,0.34165437822847755,1.2025718586911762,1.258365902351544,-0.002198557602808301,1.4002073813731326,0.5559679077144157,-0.36551519728611315,-0.0031159058429027133,-0.5061434162420673,0.15323034576277061,0.2001294742671491,0.14718177915803946
4.492836676217765,0.3695609249892952,1.2137224056675706,1.2510953358496897,-0.0022316149314079246,1.3906327515592265,0.5591141955262411,-0.3615569014651181,-0.00019909999138149025,-0.450504604418309,0.161452110091018,0.19549437368373912,0.14439962400246192
4.5128939828080235,0.39728743465715854,1.2249375443069042,1.2439029254196254,-0.002206932509663929,1.3822201469589421,0.5624281558986269,-0.35770375787539577,0.0026560592657226788,-0.3899233282133414,0.16999844150486387,0.18960894260552452,0.1410144911259392
4.532951289398281,0.4248581432558823,1.2362206933096798,1.2367863158272137,-0.002125864916445006,1.3750694708598945,0.5659163305544447,-0.3539810916389057,0.005437354658567364,-0.3242941876281782,0.1788743781201314,0.18244132982610095,0.13701060898612608
4.553008595988539,0.4522993059550343,1.2475754032184807,1.229742638965635,-0.0019900142303251535,1.3692827345496767,0.5695853619788809,-0.3504148649017358,0.008132253486463372,-0.253511782663828,0.18808495805264935,0.1739596841390627,0.13237220604067723
4.573065902578797,0.4796392392299331,1.259005358433217,1.2227685011149085,-0.0018012363382006334,1.3649640573158628,0.5734419934194381,-0.34703167683410274,0.01072790761787447,-0.17747071332130648,0.19763521941824025,0.164132154338005,0.12708351074724752
4.593123209169055,0.5069083630216493,1.2705143792263722,1.2158599702014063,-0.0015616472439068949,1.3622196664460053,0.5774930688859361,-0.3438587636303517,0.01321115349041763,-0.09606557960162387,0.20753020033273106,0.15292688921652253,0.12112875156349169
4.613180515759312,0.5341392428970042,1.2821064237582496,1.2090125630573731,-0.0012736293768355143,1.3611578972276388,0.5817455331505115,-0.3409239985089549,0.0155685121108629,-0.00919098150579023,0.21777493891194855,0.1403120375682132,0.11449215694706438
4.633237822349571,0.5613666322085692,1.2937855900922175,1.2022212326804431,-0.0009398379005511472,1.3618891929482748,0.5862064317476171,-0.338255891712512,0.017786189055133336,0.08325848096517818,0.22837447327171745,0.12625574818666685,0.10715795535562056
4.6532951289398286,0.5886275142546664,1.3055561182099575,1.1954803554931561,-0.0005632070214084413,1.3645261048954065,0.5908829109740223,-0.33588359050775285,0.019850074468305223,0.18138820781027487,0.2393338415278583,0.11072616986547601,0.09911037524681479
4.673352435530086,0.6159611444393664,1.3174223920267087,1.1887837186024772,-0.00014695629716900648,1.3691832923565064,0.5957822178888126,-0.3338368791855336,0.021745743064607807,0.2853035990284831,0.2506580817962063,0.0936914513982483,0.090333645078302
4.693409742120344,0.6434071487896398,1.3293896303113084,1.1821261823572797,0.0003052396726978243,1.3755382212858218,0.6010658344854212,-0.3317696626239568,0.023422114594481735,0.32862006577618996,0.28521181061143075,0.13146995426270028,0.0754874608651514
4.713467048710602,0.6709842947519638,1.3414709374826908,1.1755213359868915,0.0007876406589886098,1.3822075571026717,0.6072097055500854,-0.3285050263770616,0.02476182617279277,0.33797551938341264,0.3286596894522993,0.19445528176605748,0.05863981827539697
4.73352435530086,0.6986965641295247,1.3536836064182214,1.1689941649676165,0.0012935285128032018,1.38904388355792,0.6141917997370919,-0.3240128036718288,0.025773895368227343,0.34532719750491636,0.36904421932998943,0.2542377614923617,0.042720382095107284
4.7535816618911175,0.726546899207149,1.3660437929491482,1.1625685841236246,0.0018165348915730045,1.3960076092151825,0.6219514558562292,-0.31835650178004643,0.026476715880030855,0.35072350747365844,0.4064259791494418,0.3108723618168443,0.027712109429893713
4.773638968481376,0.7545374601224024,1.3785664517986969,1.156267249127326,0.0023506559181354545,1.4030601107847342,0.6304292242953811,-0.3115985286059989,0.026888340549560977,0.3542128566225927,0.4408655478156076,0.3644140511147428,0.013597957385367666
4.793696275071634,0.7826696442285217,1.3912653608136298,1.1501115784867177,0.0028902453635762607,1.4101637331235075,0.6395668670205311,-0.3038001926864656,0.027026481360287548,0.3558436522846855,0.47242350423343993,0.41491779776129384,0.0003608830671405555
4.813753581661891,0.8109441054573497,1.404153145195812,1.1441217755327384,0.0034300078300716547,1.4172817892350953,0.6493073575757619,-0.2950217031907218,0.026908509437792674,0.3556643017928897,0.5011604273078848,0.46243857013172707,-0.012016156419176218
4.83381088825215,0.8393607736822675,1.4172413017337686,1.1383168504066146,0.003964991933730628,1.4243785602697494,0.659594881083256,-0.28532216992053644,0.026551455049770648,0.35372321248016725,0.5271368959438917,0.5070313366012807,-0.023550203967971223
4.853868194842407,0.867918874081128,1.430540223034252,1.1327146420472145,0.004490583487437185,1.4314192955243816,0.6703748342432942,-0.2747596033101752,0.02597200760602806,0.3500687916794754,0.5504134890464047,0.5487510655451882,-0.0342583024736331
4.873925501432665,0.8966169464991881,1.4440592217537993,1.1273318401783934,0.005002498683692579,1.4383702124425615,0.681593825334255,-0.2633909144263985,0.025186515658483653,0.3447494467237716,0.5710507855203751,0.5876527253386824,-0.0441574948305504
4.893982808022923,0.925452864812044,1.457806554830298,1.1221840072963492,0.005496777277457569,1.4451984966145188,0.693199674212618,-0.2512719149684627,0.024210986901168453,0.3378135849460186,0.5891093642707571,0.6237912843570009,-0.053264823933111737
4.914040114613181,0.9544238562885622,1.4717894477145446,1.1172856006569678,0.005969775768994647,1.4518723017771418,0.7051414123129605,-0.2384573172681188,0.02306108817022569,0.3293096136791737,0.6046498042024937,0.6572217109753786,-0.06159733267570568
4.934097421203439,0.9835265209538128,1.4860141186018074,1.1126499942631751,0.0064181605867102915,1.4583607498139772,0.7173692826479587,-0.22500073428961298,0.0217521454439108,0.3192859402561962,0.6177326842205364,0.68799897356905,-0.06917206395272082
4.954154727793696,1.0127568509520057,1.5004858026633923,1.108289500852289,0.0068389012699972265,1.464633930755235,0.7298347398083902,-0.21095467962968703,0.020299143842591523,0.30779097201004285,0.6284185832298345,0.7161780405132507,-0.07600606065854587
4.974212034383955,1.042110249909419,1.5152087762781983,1.104215393883365,0.007229263652076635,1.4706629027777776,0.7424904499631266,-0.19637056751757823,0.01871672762874771,0.29487311627367346,0.6367680801353328,0.7418138801832109,-0.08211636568756918
4.9942693409742125,1.0715815522973373,1.5301863812642855,1.1004379295245517,0.007586803042840435,1.4764196922051331,0.7552902908591438,-0.18129871281501925,0.017019200206971563,0.2805807803800472,0.6428417538419847,0.7649614609541707,-0.08752002193417957
5.01432664756447,1.101165042794979,1.5454210491104325,1.0969663686404352,0.007909357411693492,1.4818772935074838,0.7681893518215125,-0.16578833101623752,0.015220524123967433,0.26496237166212155,0.6467001832547347,0.7856757512013606,-0.0922340722927655
5.034383954154729,1.1308544756524372,1.5609143252077025,1.093808998779395,0.008195040570395907,1.4870096693016752,0.7811439337534062,-0.14988753824795548,0.013334321068551933,0.24806629745285924,0.6484039472785372,0.8040117193000198,-0.09627555965771566
5.054441260744986,1.160643094053604,1.576666893081001,1.090973156160949,0.008442235355905211,1.4917917503512093,0.7941115491360939,-0.1336433512693925,0.011373871871653873,0.22994096508521322,0.648013624818336,0.820024333625379,-0.09966152692341862
5.074498567335244,1.1905236494791107,1.5926785986206407,1.088465247663106,0.00864958681321864,1.4961994355662471,0.8070509220289452,-0.11710168747226171,0.009352116506314316,0.21063478189214613,0.6455897947790821,0.8337685625526757,-0.10240901698426287
5.0945558739255015,1.220488421069258,1.6089484743139029,1.086290772809717,0.008815995378215384,1.5002095920036118,0.8199219880694292,-0.100307364880772,0.007281654087686581,0.19019615520661537,0.6411930360657241,0.8452993744571429,-0.10453507273463711
5.11461318051576,1.2505292349869488,1.6254747634765985,1.0844543457578224,0.008940610060498809,1.5038000548667816,0.8326858944731125,-0.08330410215162744,0.005174742873036143,0.1686734923615807,0.6348839275832107,0.8546717377140153,-0.10605673706892987
5.134670487106018,1.2806374837806236,1.6422549444846326,1.0829597172850043,0.009022821626238724,1.5069496275058978,0.8453050000336625,-0.0661345185740277,0.003043300261740766,0.1461152006900015,0.6267230482364909,0.8619406206985294,-0.10699105288152985
5.154727793696275,1.310804145747191,1.659285755005562,1.0818097967767357,0.0090622557810136,1.5096380814177577,0.8577428751228433,-0.04884013406966768,0.0008989027952903948,0.12256968752483455,0.6167709769305136,0.8671609917859193,-0.1073550630668255
5.174785100286534,1.3410198042949635,1.6765632162301625,1.0810066742137308,0.009058766352652849,1.51184615624582,0.8699643016905202,-0.031461369192737704,-0.001247213842712731,0.09808536019904035,0.605088292570227,0.8703878193514184,-0.10716581051920554
5.194842406876791,1.3712746673065883,1.6940826571039864,1.0805516421592953,0.009012428474079038,1.513555559780202,0.8819352732646566,-0.014037545129922807,-0.003384154826554215,0.07271062604557788,0.5917355740605814,0.8716760717702636,-0.10644033813305856
5.214899713467049,1.4015585865019804,1.7118387385589255,1.0804452177466748,0.008923531766150135,1.5147489679576784,0.8936229949513135,0.0033931162995960995,-0.005501366188407403,0.0464938923974032,0.5767734003065228,0.8710807174176869,-0.10519568880277302
5.234957020057307,1.43186107680126,1.7298254777447757,1.0806871646664082,0.008792573520501785,1.5154100248616857,0.9049958834346532,0.02079349264414268,-0.007588634818333387,0.01948356658747752,0.5602623502130022,0.8686567246689251,-0.10344890542273755
5.255014326647565,1.4621713356876802,1.7480362722607972,1.0812765151536756,0.008620251882389523,1.5155233427223185,0.9160235669769362,0.038127560819545936,-0.009636088464281076,-0.008271944051239322,0.5422630026849695,0.8644590618992136,-0.10121703088734085
5.275071633237823,1.4924782625705644,1.7664639243872757,1.082211591975648,0.008407459033531033,1.5150745019163314,0.9266768854185219,0.05536039710913929,-0.011634195732087125,-0.03672423218579146,0.5228359366273718,0.8585426974837854,-0.09851710809097146
5.29512893982808,1.5227704781482334,1.7851006653170824,1.0834900304188373,0.008155274374948365,1.5140500509671344,0.9369278901778664,0.07245817716376007,-0.013573766085475931,-0.06582489048321793,0.5020417309451564,0.8509625997978753,-0.0953661799280179
5.315186246418339,1.55303634377095,1.8039381793872447,1.08510880027645,0.007864957709810232,1.5124375065448028,0.9467498442515293,0.08938817600175156,-0.015445949846059763,-0.09552551161056133,0.4799409645432753,0.8417737372167196,-0.09178128929286893
5.335243553008596,1.583263980803839,1.8229676283104974,1.087064227835732,0.007537942426274219,1.5102253534660666,0.9561172222141663,0.1061187680089615,-0.017242238193338574,-0.1257776882348618,0.45659421632667585,0.8310310781155518,-0.08777947907991296
5.355300859598854,1.6134412899898276,1.8421796754068491,1.0893520178653215,0.0071758286803290175,1.5074030446943154,0.9650057102185313,0.12261942693874131,-0.018954463164700095,-0.15653301302316058,0.43206206520030666,0.8187895908696062,-0.08337779218353861
5.3753581661891126,1.6435559708125793,1.8615645098351477,1.0919672756026,0.006780376578636702,1.5039610013395994,0.973392205995479,0.1388607259119482,-0.02057479765541987,-0.18774307864249962,0.4064050900691165,0.8051042438541188,-0.07859327149813458
5.39541547277937,1.673595540859425,1.8811118708246386,1.0949045287410406,0.006353499361374961,1.499890612658628,0.981254818853963,0.1548143374169434,-0.022095755418661135,-0.21935947775991949,0.3796838698380558,0.7900300054443243,-0.07344295991808947
5.415472779369628,1.7035473551842943,1.900811071906524,1.0981577494175585,0.005897256585079324,1.4951842360547691,0.9885728696810352,0.1704530333095931,-0.02351019106547503,-0.2513338030424619,0.35195898341207066,0.7736218440154563,-0.06794390033779175
5.435530085959885,1.7333986256706517,1.9206510251455309,1.1017203761998606,0.005413847305485434,1.4898351970780488,0.9953268909418456,0.18575068481326862,-0.02481130006480034,-0.2836176471571681,0.32329100969611146,0.7559347279427502,-0.062113135651630035
5.455587392550144,1.7631364403944296,1.9406202653714704,1.105585336073798,0.004905603260371276,1.4838377894251542,1.0014986266796453,0.20068226251884513,-0.025992618743463657,-0.3161626027710769,0.29374052759512836,0.7370236256014415,-0.055967708753993026
5.4756446991404015,1.7927477829869607,1.9607069744107988,1.1097450664307122,0.004374982052399428,1.4771872749394315,1.0070710325157837,0.21522383638470327,-0.027048024286179428,-0.3489202625512329,0.2633681160140684,0.7169435053667645,-0.04952466253926928
5.495702005730659,1.8222195519979096,1.9808990053181799,1.1141915370547895,0.0038245603319592885,1.4698798836108833,1.012028275649707,0.2293525757367274,-0.027971734735549744,-0.38184221916467553,0.23223435385788038,0.695749335613953,-0.042801039901847214
5.515759312320918,1.8515385802582096,2.001183906608048,1.1189162721104073,0.0032570269800093555,1.4619128135761752,1.0163557348589636,0.24304674926830805,-0.02875830899206451,-0.41488006527844723,0.20039982003151247,0.6734960847182423,-0.035813883736115694
5.535816618911175,1.880691654242993,2.0215489464861713,1.1239103721294874,0.002675176290919446,1.45328423111863,1.0200400004991992,0.25628572504033886,-0.02940264681410152,-0.4479853935595881,0.16792509343991568,0.650238721054868,-0.028580236936463183
5.555873925501433,1.909665533434525,2.0419811370812084,1.129164535998843,0.002081901155312941,1.4439932706682297,1.0230688745041583,0.26904997048121937,-0.029899988817926174,-0.4811097966751392,0.13487075298803708,0.6260322129990639,-0.021117142397278195
5.575931232091691,1.9384469696851359,2.062467258676274,1.1346690829475303,0.0014801862429090166,1.4340400348016153,1.025431370385685,0.281321052386853,-0.030245916477691676,-0.5142048672921411,0.10129737758082724,0.6009315289260648,-0.013441643012949422
5.595988538681949,1.9670227265801579,2.082993883940504,1.1404139745342003,0.0008731011853649411,1.4234255942420875,1.027117713233722,0.29308163692064826,-0.030436352125439096,-0.5472221980776371,0.06726554612323321,0.5749916372111061,-0.005570781677865455
5.616045845272207,1.9953795988008554,2.1035474021606135,1.1463888366344466,0.0002637937591182765,1.412151987859607,1.0281193397163115,0.30431548961351856,-0.030467558951097193,-0.5801133816986677,0.03283583752020469,0.5482675062294224,0.002478398713585052
5.636103151862464,2.023504431487355,2.1241140434724546,1.1525829814281536,-0.00034451693177089526,1.400222222670791,1.028428898079594,0.31500747536388163,-0.030336141002482508,-0.6128300108222726,-0.0019311693233103888,0.5208141043562471,0.010688855267013762
5.656160458452723,2.0513841396015873,2.1446799030925883,1.158985429386853,-0.000948547272777679,1.3876402738389184,1.0280402481478086,0.3251435584376596,-0.030039043185299368,-0.6453236781154947,-0.03697489550236188,0.49268639996681707,0.019043545088031702
5.67621776504298,2.079005727290213,2.1652309655498416,1.165584931261068,-0.0015449559560701417,1.3744110846739275,1.0269484613232955,0.3347108024682804,-0.029573551263139913,-0.6775459762453755,-0.07223476211200275,0.46393936143636516,0.027525425282250535
5.696275071633238,2.1063563072475566,2.1857531289168657,1.1723699900676656,-0.0021303507976670735,1.3605405666324133,1.0251498205864913,0.34369737045667526,-0.02893729185748397,-0.7094484978789533,-0.10765019024728195,0.4346279571401276,0.036117452955281744
5.7163323782234965,2.1334231200785427,2.2062322290417025,1.1793288830772055,-0.002701295554595754,1.3460355993176316,1.022641820495933,0.3520925247712814,-0.0281282324476992,-0.7409828356832726,-0.143160601003252,0.40480715545333834,0.044802585212736556
5.736389684813754,2.1601935536616272,2.226654063779347,1.1864496838012932,-0.0032543167420496697,1.3309040304794975,1.0194231671882563,0.3598866271480397,-0.027144681371040986,-0.772100582325371,-0.17870541547496277,0.37453192475123265,0.053563779160226366
5.756446991404012,2.186655162511733,2.2470044172233097,1.1937202839799272,-0.003785910450546312,1.3151546760145854,1.0154937783781959,0.3670711386903965,-0.025985287822652532,-0.802753330472294,-0.21422405475746764,0.3438572334090446,0.06238399190336267
5.77650429799427,2.212795687143176,2.2672690839371716,1.2011284155688486,-0.00429254916308488,1.2987973199661278,1.0108547833585857,0.3736386198693024,-0.02464904185556481,-0.8328926727910808,-0.24965593994581603,0.3128380498020098,0.07124618054775682
5.796561604584528,2.2386030734326083,2.2874338931861544,1.2086616727268946,-0.00477068857230414,1.281842714524016,1.005508523000357,0.37958273052321234,-0.02313527438069651,-0.8624702019487711,-0.28494049213506,0.2815293423053622,0.08013330219902025
5.8166189111747855,2.264065491981945,2.3074847331686814,1.2163075338033462,-0.005216774397640037,1.2643025800248044,0.9994585497525438,0.3848982298580873,-0.021443657166854202,-0.8914375106124086,-0.32001713242025076,0.24998607929433692,0.08902831396276438
5.836676217765043,2.2891713574812975,2.3274075752479337,1.2240533833252774,-0.005627249202483565,1.2461896049517014,0.9927096276422744,0.3895809764473915,-0.019574202840732097,-0.9197461914490339,-0.35482528189643947,0.2182632291441684,0.09791417294460053
5.856733524355302,2.313909348071908,2.3471884981834172,1.2318865339849068,-0.0059985592113384585,1.2275174459345772,0.9852677322747797,0.39362792823209464,-0.01752726488691222,-0.9473478371256867,-0.389304361658676,0.18641576023009176,0.10677383625014036
5.876790830945559,2.3382684247090846,2.3668137123625246,1.239794248626949,-0.006327161126978986,1.208300727749961,0.9771400508333872,0.39703714252067046,-0.015303537647864473,-0.9741940403094094,-0.42339379280201284,0.1544986409273419,0.1155902609849949
5.896848137535817,2.362237850525133,2.386269584032096,1.2477637622359619,-0.006609528947607696,1.1885550433210406,0.968334982079525,0.3998077759890984,-0.012904056323946325,-1.000236393667242,-0.4570329964215003,0.12256683961115278,0.12434640425477592
5.916905444126075,2.3858072101922856,2.405542659529979,1.2557823039236977,-0.0068421607840131295,1.1682969537176642,0.9588621363527194,0.4019400846808617,-0.010330196973403268,-1.025426489866228,-0.49016139361219047,0.09067532465676065,0.13302522316509455
5.936962750716333,2.408966429285642,2.4246196895165957,1.2638371189164543,-0.007021585676727669,1.1475439881563376,0.948732335570596,0.4034354240069489,-0.00758367651236835,-1.0497159215734078,-0.5227184054691345,0.05887906443939861,0.14160967482156245
5.957020057306591,2.431705793646096,2.443487653206499,1.2719154905424235,-0.007144370413185186,1.1263146440002274,0.9379576132288793,0.4042962487458528,-0.004666552714862521,-1.073056281455821,-0.5546434530873836,0.027233027334301996,0.15008271632979076
5.977077363896848,2.454015968743273,2.4621337825999388,1.2800047622190431,-0.007207126344878885,1.1046283867591573,0.9265512144013921,0.4045261130435711,-0.001581224212794368,-1.09539916218051,-0.5858759575619876,-0.004207818283294307,0.15842730479539102
5.997134670487107,2.475888019038461,2.4805455867144217,1.2880923594403444,-0.007206516204518992,1.082505650089612,0.9145275957400572,0.4041296704136058,0.0016695695040395662,-1.1166961564145166,-0.6163553399880008,-0.035388504038155855,0.16662639732397466
6.017191977077364,2.497313427347544,2.498710875816275,1.2961658117643051,-0.007139260923190564,1.059967835794735,0.901902425474896,0.4031126737369647,0.0050827480879551065,-1.1368988568248812,-0.6460210214604705,-0.06625406155504754,0.1746629510211531
6.037249283667622,2.518284114203936,2.5166177856522056,1.3042127748001977,-0.007002146447511194,1.037037313824329,0.8886925834140293,0.4014819752621589,0.008654890333380245,-1.1559588560786422,-0.6748124230744477,-0.09674952245873314,0.18251992299253755
6.05730659025788,2.5387924572215117,2.5342548016808655,1.3122210521959394,-0.006792030556788826,1.0137374222748545,0.8749161609436753,0.39924552660520496,0.012382234176855217,-1.1738277468428482,-0.7026689659249885,-0.1268199183739811,0.19018027034373958
6.077363896848138,2.5588313104575455,2.5516107833044113,1.320178617625444,-0.006505849680179452,0.9900924673894329,0.8605924610281523,0.3964123787496241,0.016260676697032544,-1.1904571217845321,-0.7295300711071393,-0.1564102809255543,0.19762695018037074
6.097421203438396,2.578394023775637,2.5686749881000663,1.3280736367759696,-0.006140625713844898,0.9661277235578445,0.8457419982098795,0.39299268204644244,0.02028577411467681,-1.205798573570739,-0.7553351597159521,-0.18546564173821833,0.20484291960804213
6.117478510028654,2.59747446220865,2.5854370960516846,1.3358944893354705,-0.005693472838110572,0.9418694333165272,0.8303864986093705,0.38899768621419006,0.024452741792665062,-1.2198036948685136,-0.780023652846483,-0.21393103243674072,0.21181113573236543
6.137535816618912,2.6160670253216423,2.60188723378131,1.343629790979946,-0.00516160433462323,0.9173448073485804,0.8145488999252422,0.38443974033890216,0.02875645423598634,-1.2324240783448905,-0.8035349715937756,-0.24175148464588303,0.21851455565895195
6.157593123209169,2.634166666574803,2.618015998780742,1.3512684153607926,-0.004542339403508715,0.8925820244837612,0.7982533514342076,0.37933229287411874,0.033191445091742135,-1.243611316666914,-0.8258085370528851,-0.2688720299904124,0.22493613649341299
6.177650429799427,2.6517689126863795,2.633814483643091,1.3587995160921502,-0.0038331099805297315,0.867610231698487,0.7815252139910815,0.37368989164088473,0.037751907149145926,-1.253317002501626,-0.8467837703188641,-0.29523770009509454,0.23105883534136
6.1977077363896855,2.6688698829956152,2.6492743002943495,1.3662125487382575,-0.0030314675542435603,0.8424595441158327,0.7643910600287751,0.3675281838277493,0.04243169233952358,-1.2614927285160658,-0.8664000924867603,-0.32079352658469396,0.2368656093084045
6.217765042979943,2.6854663088256836,2.664387604224947,1.3734972928007971,-0.002135089983159876,0.8171610450055333,0.7468786735582986,0.36086391599076584,0.04722431173631327,-1.2680900873772767,-0.8845969246516265,-0.34548454108397575,0.2423394155001578
6.237822349570201,2.7015555528466173,2.679147118721315,1.3806438737062487,-0.0011417883128984653,0.7917467857839839,0.7290170501687636,0.3537149340534941,0.05212293555506517,-1.273060671752298,-0.901313687908514,-0.3692557752177057,0.24746321102223134
6.257879656160459,2.7171356284382444,2.6935461590974454,1.387642784793238,-4.951359334694552e-05,0.7662497860142374,0.7108363970273788,0.34610018330699677,0.057120393153441876,-1.2763560743081717,-0.916489803352474,-0.3920522606106489,0.25221995298023653
6.277936962750717,2.732205219053119,2.7075786569264593,1.3944849092998866,0.0011436363041813571,0.7407040334060055,0.6923681328794513,0.3380397084098419,0.06220917303121805,-1.2779278877119389,-0.9300646920785569,-0.41381902888757005,0.25659259847978466
6.2979942693409745,2.7467636975794596,2.7212391842721626,1.4011615423511636,0.002439409869789834,0.7151444838156613,0.673644888048389,0.32955465338810264,0.06738142283028077,-1.2777277046306397,-0.9419777751818141,-0.4345011116732349,0.2605641046264874
6.318051575931233,2.760811145704074,2.7345229779206104,1.4076644129462332,0.003839395137840637,0.6896070612462344,0.6547005044356977,0.3206672616353561,0.07262894933462909,-1.275707117731319,-0.952168473757298,-0.45404354059240914,0.2641174285259559
6.338108882521491,2.774348373275302,2.7474259636116702,1.4139857059458074,0.0053450128697971125,0.6641286578474161,0.635570035520983,0.31140087591268495,0.07794321847037465,-1.2718177196810132,-0.9605762089000587,-0.47239134726985743,0.2672355272838017
6.358166189111748,2.7873769376659396,2.7599447802705814,1.4201180840594942,0.006957509737065892,0.6387471339155546,0.6162897463619479,0.30177993834867567,0.08331535530574086,-1.2660111031467687,-0.9671404017051485,-0.48948956333034543,0.2699013580056361
6.378223495702006,2.799899163136179,2.772076804239518,1.4260547098331484,0.008677951503839237,0.6135013178936597,0.5968971135943955,0.2918299904394197,0.08873614405106378,-1.2582388607956203,-0.9718004732676162,-0.5052832203986373,0.2720978777970706
6.398280802292264,2.811918160196539,2.7838201735091523,1.4317892676362225,0.010507216209937269,0.5884310063713967,0.577430825432228,0.2815776730485131,0.09419602805879154,-1.248452585294615,-0.9744958446825142,-0.5197173500994999,0.27380804376371665
6.418338108882522,2.8234378449707975,2.795173811950216,1.4373159856491147,0.012445987353650115,0.5635769640850938,0.5579307816674453,0.27105072640705785,0.09968510982348439,-1.2366038693107908,-0.975165937044896,-0.5327369840576971,0.2750148130111856
6.43839541547278,2.8344629585589254,2.8061374535450603,1.4426296578505209,0.014494747074580348,0.5389809239177379,0.5384380936701492,0.2602779901136585,0.10519315098181498,-1.2226443055111902,-0.973750171449809,-0.5442871538979949,0.2757011426450889
6.458452722063038,2.84499908640002,2.81671166661922,1.4477256660047846,0.01665376933648498,0.5146855868989726,0.5189950843885369,0.24928940313442594,0.110709572312568,-1.2065254865628527,-0.9701879689923062,-0.554312891245158,0.27584998977103775
6.478510028653296,2.855052677635239,2.826897878072975,1.452600001649246,0.01892311311011797,0.4907346222051028,0.49964528834890665,0.23811600380297504,0.11622345373664064,-1.1881990051328217,-0.9644187507674391,-0.5627592277239523,0.27544431149464377
6.498567335243553,2.864631064470733,2.836698397612912,1.4572492880815924,0.02130261555607223,0.4671726671590912,0.4804334516556552,0.22678992982042545,0.121723534317042,-1.1676164538881386,-0.9563819378702589,-0.5695711949591432,0.2744670649215183
6.518624641833811,2.873742481540575,2.8461164419834866,1.461670802347209,0.02379188520762205,0.44404532723056267,0.4614055319912791,0.21534441825540207,0.1271982122588936,-1.144729425495842,-0.9460169513958163,-0.5746938245754954,0.27290120715727284
6.5386819484240695,2.8823960852697024,2.8551561591985863,1.4658624972265286,0.026390295153565297,0.42139917603579624,0.4426086986163722,0.20381380554403372,0.13263554490942928,-1.119489512622974,-0.93326321243916,-0.5780721481977737,0.27072969530751867
6.558739255014327,2.890601973236841,2.8638226527730897,1.4698230232223815,0.02909697622106551,0.3992817553377348,0.4240913323696276,0.1922335274899536,0.1380232487579948,-1.0918483079365762,-0.9180601420953447,-0.5796511974507436,0.2679354864778672
6.578796561604585,2.898371203537444,2.8721220059544317,1.4735517505473457,0.031910810158494424,0.3777415750459774,0.40590302566783976,0.18064011926430124,0.14334869943604853,-1.0617574041036915,-0.9003471614594226,-0.5793760039591717,0.2645015377739298
6.598853868194843,2.90571581414662,2.880061305954162,1.4770487911110965,0.034830422818273914,0.3568281132167841,0.3880945825058988,0.16907121540571945,0.14859893171716065,-1.029168393791358,-0.8800636916264415,-0.5771915993478212,0.2604108063013181
6.618911174785101,2.9126488422820733,2.8876486681795126,1.4803150205077582,0.03785417733971854,0.3365918160530734,0.37071801845679575,0.15756554982035542,0.15376063951701388,-0.9940328696666203,-0.8571491536914533,-0.5730430152414587,0.2556462491656434
6.638968481375358,2.919184343767033,2.8948932604649533,1.4833521000032526,0.040980167331877454,0.3170840979044227,0.35382656067162044,0.1461629557818629,0.15882017589340314,-0.956302424396515,-0.8315429687495091,-0.5668752832648489,0.2501908234725169
6.659025787965617,2.925337412393182,2.9018053273037587,1.4861624985226491,0.044206210056377024,0.2983573412670686,0.3374746478795623,0.13490436593139865,0.16376355304623544,-0.9159286506480875,-0.803184557895662,-0.5586334350427575,0.24402748632755022
6.679083094555875,2.931124199283599,2.908396214079566,1.4887495146375158,0.04752983961026268,0.2804648967839083,0.32171793038790764,0.12383181227762474,0.16857644231753008,-0.8728631410883789,-0.7720133422249629,-0.5482625021999499,0.23713919483635487
6.699140401146132,2.936561932255686,2.91467839129794,1.491117298553269,0.05094830010884153,0.26346108324449613,0.3066132700820432,0.11298842619670757,0.1732441741914186,-0.8270574883844253,-0.7379687428324582,-0.5357075163611889,0.229508906104542
6.71919770773639,2.9416689351841017,2.920665478817936,1.4932708740965237,0.054458538868524406,0.2474011875850466,0.2922187404254548,0.10241843843231879,0.17775173829414492,-0.7784632852032751,-0.7009901808132075,-0.5209135091512445,0.22111957723772305
6.739255014326648,2.9464646473636966,2.9263722700836583,1.4952161607024428,0.058057199589668,0.23234146488843344,0.27859362645972685,0.09216717909563454,0.18208378339406472,-0.7270321242119646,-0.661017077262255,-0.503825512194878,0.21195416534150965
6.759312320916906,2.950969642872444,2.9318147563558226,1.4969599954020878,0.061740615539417454,0.21833913838418972,0.26579842480454285,0.08228107766533532,0.18622461740164653,-0.6727155980775361,-0.6179888532746523,-0.48438855711685536,0.2019956275215129
6.7793696275071635,2.9552056499343773,2.9370101509433217,1.498510154809769,0.06550480273454819,0.20545239944850624,0.25389484365768533,0.07280766298760599,0.1901582073694706,-0.6154652994670311,-0.5718449299454553,-0.4625476755419431,0.19122692088334448
6.799426934097422,2.9591955702825166,2.941976913434785,1.4998753771103963,0.06934545312430856,0.19374040760423505,0.24294580279503597,0.06379556327613856,0.19386817949222976,-0.5552328210474897,-0.522524728369711,-0.4382478990949048,0.1796310025326156
6.81948424068768,2.962963498521809,2.9467347739301384,1.501065384046827,0.07325792777326168,0.1832632905208873,0.23301543357057386,0.055294506112126385,0.19733781910672873,-0.49196975548595745,-0.4699676696424735,-0.4114342594005085,0.16719082957493792
6.839541547277937,2.966534741492056,2.95130475727217,1.5020909029072185,0.07723725004412807,0.1740821440146303,0.2241690789163795,0.04735531844426921,0.20055007069188482,-0.42562769544946644,-0.4141131748587883,-0.3820517880835137,0.15388935911592255
6.859598853868196,2.9699358376308496,2.95570920727809,1.5029636885123763,0.08127809878062768,0.1662590320482955,0.2164732933426321,0.04002992658877158,0.20348753786872734,-0.35615823360506926,-0.3549006651137159,-0.3500455167686929,0.13970954826118095
6.879656160458453,2.973194576336506,2.959971810971093,1.503696545203106,0.08537480149032205,0.15985698673136728,0.20999584293760676,0.033371356229342064,0.20613248340039786,-0.2835129626198025,-0.29226956150230166,-0.3153604770808087,0.12463435411632479
6.899713467048711,2.976340017330998,2.964117622811922,1.5043033488275614,0.08952132752745685,0.15494000831999521,0.2048057053676826,0.027433732417194934,0.20846682919215023,-0.20764347516070103,-0.2261592851195937,-0.27794170064462254,0.10864673378696493
6.919770773638969,2.9794025100228847,2.9681730889304245,1.5047990687285964,0.09371128127580373,0.15157306521698455,0.20097306987733166,0.022272279571047993,0.2104721562913504,-0.12850136389481204,-0.15650925706064545,-0.23773421908490278,0.09172964437871364
6.939828080229227,2.9824137128702524,2.972166071357123,1.5051997897311142,0.09793789533150304,0.1498220939718009,0.19856933728913062,0.017943321477124075,0.2121297048874768,-0.04603822148918013,-0.08325889842051559,-0.19468306402641744,0.07386604299718139
6.959885386819485,2.985406612743639,2.9761258722547685,1.5055227341294173,0.10219402368590559,0.14975399928056965,0.1976671200037522,0.014504281289151544,0.21342037431211983,0.03979435938916076,-0.006347630294245121,-0.14873326709392742,0.05503888674798035
6.979942693409742,2.9884155442889755,2.9800832581499104,1.5057862836745575,0.10647213490841533,0.15143665398607237,0.1983402419999683,0.012013681528361964,0.21432472303898226,0.12904478607316605,0.0742851262231099,-0.09982985991219984,0.03523113273672129
7.0,2.9914762092905134,2.984070484164451,1.5060100015616873,0.11076430532933114,0.15493889907775243,0.20066373883464925,0.010531144083492802,0.21482296868387904,0.2217614658957956,0.15869995003649962,-0.04791787410599735,0.014425738069016092
