time,pos_x,pos_y,pos_z,yaw,vel_x,vel_y,vel_z,vel_yaw,acc_x,acc_y,acc_z,acc_yaw
0.0,-2.9999999999999987,-2.999999999999999,1.4999999999999993,0.0,0.0,0.0,0.0,0.0,0.0,0.0,0.0,0.0
0.02005730659025788,-2.9999994491866198,-2.999983072071921,1.4999979615170342,-2.0250302128445888e-07,8.228696567286629e-05,0.0025282168560531787,-0.0003043185214003246,-3.020387557110659e-05,0.008161804473577325,0.2506310110490072,-0.030141591974666596,-0.0029861446901115925
0.04011461318051576,-2.999995646913732,-2.999866326077762,1.4999839239248085,-1.592688002527122e-06,0.0003238197228071636,0.009938372774252725,-0.0011941581731729231,-0.00011809060438717712,0.015925740527303486,0.4882318719423684,-0.058557358077529674,-0.005769011897630198
0.060171919770773644,-2.9999854873746385,-2.9995547140800194,1.499946519867873,-5.28384714136219e-06,0.0007167105859008933,0.021972142695175514,-0.0026353171403091518,-0.00025963823118438,0.02329877645146608,0.7130303770499479,-0.08527876855166758,-0.008352961061358643
0.08022922636103152,-2.9999660211226913,-2.9989583090835037,1.4998750597330295,-1.2309705417907812e-05,0.0012532112352709884,0.038375757446812264,-0.004594223012668683,-0.00045091198947494075,0.03028788053632072,0.9252543207415956,-0.1103372936401409,-0.01074235162009976
0.1002865329512894,-2.999934452283982,-2.9979922139175925,1.4997595190612345,-2.3626164370287184e-05,0.0019257127170275589,0.05890000374453379,-0.007037932784964852,-0.0006880643015471406,0.03690002107214792,1.1251314973871547,-0.13376440358602446,-0.012941543012656374
0.12034383954154729,-2.9998881357700187,-2.9965764701184825,1.4995905259595017,-4.011304587014973e-05,0.00272674544309787,0.08330022419112205,-0.009934132856779312,-0.0009673347784653177,0.04314216634922638,1.312889701356491,-0.15559156863238766,-0.014954894677831312
0.14040114613180515,-2.999824574490413,-2.9946359668114386,1.4993593485128038,-6.257583589819215e-05,0.0036489791912072455,0.11133631727675071,-0.01325113903255093,-0.0012850502200698675,0.049021284657811706,1.4887567270194495,-0.17585025902229381,-0.016786766054427398
0.16045845272206305,-2.999741416565569,-2.9921003495930534,1.4990578821959786,-9.174742831967968e-05,0.004685223104888842,0.14277273737898988,-0.01695789652158178,-0.0016376246149772404,0.05454434428818444,1.6529603687458765,-0.1945719449988186,-0.01844151658124747
0.18051575931232094,-2.999636452539355,-2.9889039294134885,1.4986786372856256,-0.00012828986865996705,0.005828425693480986,0.1773784947628071,-0.021023979938034495,-0.0020215591405799444,0.05971831353061441,1.8057284209056292,-0.21178809680502617,-0.019923505697094345
0.2005730659025788,-2.9995076125917994,-2.9849855914587344,1.4982147262720151,-0.00017279609788001975,0.007071674832128496,0.21492715558056957,-0.025419593300934455,-0.0024334421630465442,0.06455016067536617,1.9472886778685523,-0.22753018468398598,-0.021237092840770855
0.22063037249283668,-2.999352963751767,-2.9802887040328603,1.4976598512709873,-0.00022579169615193526,0.008408197761780024,0.25519684187203656,-0.030115570034166483,-0.002869949237321661,0.0690468540127201,2.0778689340045102,-0.24182967887877013,-0.022386637451079834
0.24068767908309457,-2.9991707071096467,-2.974761027440267,1.4970082914358558,-0.000287736626634464,0.009831361089189819,0.29797023156436875,-0.03508337296647773,-0.003327843107125973,0.0732153618329407,2.197696983683337,-0.25471804963244454,-0.0233764989668241
0.26074498567335247,-2.998959175030034,-2.968354622867936,1.4962548903693114,-0.0003590269792485301,0.011334670786918223,0.3430345584721211,-0.040295094331477,-0.0038039737049562123,0.07706265242630495,2.3070006212748986,-0.26622676718808047,-0.024211036826806476
0.2808022922636103,-2.9987168283644157,-2.961025761267685,1.4953950435353234,-0.0004399967144527537,0.01291177219333247,0.39018161229724907,-0.04572345576763497,-0.004295278152085172,0.08059569408308098,2.40600764114904,-0.2763873017887448,-0.02489461046982982
0.3008595988538682,-2.998442253663853,-2.952734832238421,1.494424685671044,-0.0005309194070189707,0.014556450012600558,0.4392077386290998,-0.05134180831828142,-0.004798780758561699,0.08382145509353844,2.4949458376756124,-0.2852311236775077,-0.025431579334696926
0.3209169054441261,-2.9981341603916634,-2.943446252908385,1.493340278198709,-0.000632009989807755,0.01626262831469983,0.48991383894442186,-0.05712413243160945,-0.005311593023210694,0.08674690374795174,2.574043005224472,-0.29278970309743924,-0.025826302860210638
0.340974212034384,-2.9977913781361107,-2.933128376817413,1.4921387966375426,-0.000743426497543938,0.018024370535413767,0.5421053706073601,-0.06304503796067407,-0.005830913633633121,0.08937900833658641,2.64352693816546,-0.2990945102916058,-0.026083140485173784
0.3610315186246419,-2.997412853823082,-2.9217534027991814,1.4908177180156585,-0.0008652718105921326,0.019835879476327117,0.595592346869454,-0.0690797641633893,-0.006354028466205993,0.09172473714972351,2.7036254308684398,-0.3041770155030798,-0.02620645164838917
0.38108882521489973,-2.9969976489287777,-2.909297283863467,1.4893750082819657,-0.000997595398732251,0.021691497304833454,0.6501893368696425,-0.07520417970253263,-0.006878310586082388,0.09379105847762159,2.754566277703255,-0.30806868897492595,-0.02620059578865966
0.4011461318051576,-2.996544936692387,-2.8957396360783854,1.4878091097180646,-0.0011403950649350291,0.023585705554132128,0.7057154656342622,-0.0813947826457426,-0.007401220247191435,0.09558494061056189,2.796577273039759,-0.3108010009502168,-0.026069932344788046
0.4212034383954155,-2.9960539993287827,-2.8810636474526605,1.486118928350159,-0.001293618689137544,0.025513125123224803,0.7619944140770433,-0.0876287004655181,-0.007920304892238314,0.09711335183881198,2.8298862112478016,-0.3124054216720198,-0.025818820755577183
0.44126074498567336,-2.995524225241198,-2.865255986817862,1.4843038213609523,-0.001457165972018739,0.027468516276921567,0.8188544189991167,-0.09388369003922056,-0.008433199152704279,0.09838326045264145,2.8547208866972387,-0.3129134213834042,-0.025451620459829894
0.46131805157593125,-2.9949551062339093,-2.8483067127106634,1.4823635845015508,-0.001630890178774941,0.02944677864583578,0.8761282730890075,-0.10013813764907172,-0.008937624848846621,0.09940163474232422,2.871309093757917,-0.3123564703274394,-0.024972690896348987
0.48137535816618915,-2.9943462347249237,-2.8302091822550963,1.4802984395033691,-0.0018145998828953858,0.03144295122638899,0.9336533249226414,-0.10637105898215636,-0.009431390989698704,0.10017544299812886,2.8798786267996914,-0.3107660387471937,-0.02438639150393732
0.501432664756447,-2.9936973009586643,-2.8109599600447974,1.4781090214900312,-0.0020080607099377335,0.033452212380804536,0.9912714789633359,-0.11256209913041854,-0.009912393773069928,0.10071165351033096,2.880657280192411,-0.30817359688573737,-0.02369708172139769
0.5214899713467049,-2.99300809021865,-2.790558727025264,1.4757963663892737,-0.002210997081303597,0.03546987983711303,1.0488291955618094,-0.11869153259066478,-0.010378616585545777,0.10101723456919598,2.8738728483059277,-0.3046106149861377,-0.02290912098753295
0.5415472779369628,-2.9922784800401776,-2.769008189376104,1.4733618983448473,-0.002423093958014055,0.0374914106891516,1.1061774909561768,-0.12474026326456346,-0.010828130002487767,0.10109915446499596,2.85975312551009,-0.3001085632914632,-0.0220268687411459
0.5616045845272206,-2.991508437423018,-2.7463139873932936,1.4708074171284244,-0.0026439985844851823,0.03951240139656104,1.1631719372719498,-0.13068982445864333,-0.011259091788033485,0.10096438148800613,2.8385259061747568,-0.29469891204478604,-0.021054684421039416
0.5816618911174786,-2.99069801604408,-2.722484604371417,1.4681350855514923,-0.0028733222323035603,0.041528587784788684,1.219672662522036,-0.1365223788842954,-0.011669746895096563,0.10061988392849641,2.8104189846697727,-0.28841313148917336,-0.019996927466016255
0.6017191977077364,-2.9898473534701155,-2.6975312754859337,1.4653474168772676,-0.003110641944001808,0.0435358450450859,1.2755443506067423,-0.14222071865777114,-0.01205842746536671,0.10007263007673584,2.775660155364991,-0.28128269186769383,-0.0188579573148793
0.6217765042979944,-2.9889566683703865,-2.671467896675418,1.46244726223259,-0.0033555022768340984,0.04553018773451106,1.3306562413137697,-0.14776826530018422,-0.012423552829309664,0.09932958822299609,2.734477212630266,-0.27333906342341674,-0.017642133406431382
0.6418338108882522,-2.9880262577293584,-2.6443109335238195,1.4594377980198288,-0.003607417046551675,0.0475077697759273,1.3848821303182186,-0.1531490697375094,-0.012763629506167242,0.09839772665754776,2.6870979508354425,-0.26461371639941045,-0.016353815179475303
0.66189111747851,-2.9870564940593827,-2.61607933014271,1.456322513328786,-0.0038658710711783895,0.049464884458003455,1.4381003691825864,-0.15834781230058306,-0.013077251203957313,0.0972840136706632,2.6337501643503782,-0.2551381210387451,-0.014997362072813889
0.681948424068768,-2.9860478226133735,-2.5867944180535356,1.4531051973485964,-0.004130321914786195,0.05139796443521322,1.490193865356765,-0.1633498027251022,-0.01336309881947378,0.09599541755261476,2.574661647544921,-0.24494374758448934,-0.013577133525249963
0.7020057306590258,-2.985000758597508,-2.556479825069878,1.4497899267796364,-0.004400201631270699,0.05330358172783578,1.5410500821780462,-0.16814098015162593,-0.013619940438286649,0.09453890659366992,2.5100601947889247,-0.2340620662797116,-0.012097488975586407
0.7220630372492838,-2.983915884383887,-2.5251613841796883,1.4463810532454164,-0.004674918508126659,0.055178447721956014,1.590561038871117,-0.1727079131255744,-0.013846631334741927,0.09292144908410283,2.4401736004522365,-0.22252454736748128,-0.010562787862625964
0.7421203438395416,-2.9827938467232435,-2.4928670424275596,1.442883190704496,-0.004953858810223524,0.05701941316946413,1.6386233105480632,-0.1770377995972293,-0.014042113971961718,0.09115001331418471,2.3652296589047137,-0.21036266109086776,-0.008977389625171528
0.7621776504297995,-2.9816353539576053,-2.4596267697969636,1.4393012028623762,-0.00523638852358093,0.05882346818805573,1.6851380282083661,-0.18111846692173356,-0.014205418001844182,0.0892315675741846,2.2854561645162033,-0.19760787769293953,-0.007345653702025903
0.7822349570200574,-2.980441173232994,-2.4254724680925097,1.4356401905834086,-0.005521855099144252,0.06058774226123265,1.730010878738904,-0.18493837185909184,-0.014335660265063502,0.08717308015437442,2.201080911656556,-0.18429166741676528,-0.005671939531991919
0.8022922636103152,-2.9792121277121004,-2.390437879822197,1.4319054793026957,-0.0058095891965601,0.062309504238300284,1.7731521049139527,-0.18848660057416955,-0.014432044791069954,0.08498151934502784,2.112331694695629,-0.17044550050541574,-0.003960606553872412
0.8223495702005731,-2.9779490937869713,-2.3545584970796614,1.428102606437993,-0.006098906427951857,0.06398616233437193,1.814476505395186,-0.19175286863669427,-0.014493862798089846,0.0826638534364128,2.019436308003267,-0.15610084720195783,-0.002216014206470183
0.842406876790831,-2.976652998291697,-2.3178714704264407,1.4242373088016156,-0.006389109101695186,0.06561526413036411,1.8539034347316734,-0.19472752102125457,-0.014520492693125562,0.08022705071880143,1.9226225459493258,-0.1412891777494617,-0.000442521928588092
0.8624641833810889,-2.9753248157150827,-2.2804155177742027,1.420315510012334,-0.006679487966193556,0.06719449657299859,1.8913568033598804,-0.19740153210729955,-0.014511400071955526,0.07767807948246475,1.8221182029036533,-0.1260419623909954,0.0013555108409710722
0.8825214899713467,-2.9739655654133523,-2.242230833267027,1.416343307907286,-0.006969323953653781,0.06872168597480621,1.926765077603674,-0.19976650567914161,-0.014466137719134228,0.07502390801767378,1.718151073236103,-0.11039067136962877,0.0031737246634044375
0.9025787965616047,-2.9725763088228114,-2.2033589961636304,1.4123269619538699,-0.007257889923861507,0.0701947980141181,1.9600612796743122,-0.20181467492595262,-0.014384345607992207,0.07227150461470044,1.6109489513165276,-0.09436677492843093,0.0050077600999091955
0.9226361031518625,-2.971158146672547,-2.1638428797196374,1.4082728806616553,-0.007544452407956759,0.07161193773507435,1.991182987670453,-0.20353890244176698,-0.014265750900636065,0.06942783756381532,1.5007396315147763,-0.07800174331047005,0.0068532577116825035
0.9426934097421205,-2.969712216197101,-2.1237265600698216,1.404187608994281,-0.007828273352209456,0.07297134954761952,2.020072335578154,-0.20493268022548,-0.014110167947948468,0.06649987515529032,1.3877509082007013,-0.061327046758816284,0.008705858059921565
0.9627507163323783,-2.968239688349162,-2.0830552251103627,1.4000778157813591,-0.008108611861794929,0.07427141722750386,2.0466760132708646,-0.2059901296808488,-0.01391749828958811,0.06349458567939514,1.2722105757441522,-0.04437415551653734,0.010561201705823546
0.9828080229226361,-2.9667417650122463,-2.041875083381101,1.3959502811303799,-0.008384725944569446,0.07551066391628192,2.0709452665094363,-0.20670600161649139,-0.013687730653989795,0.0604189374264017,1.1543464285149827,-0.027174539826702704,0.012414929210585613
1.002865329512894,-2.965219676213373,-2.000233272947778,1.391811883838609,-0.008655874254845722,0.07668775212131473,2.092835896942113,-0.2070756762458873,-0.013420940958364316,0.05727989868658234,1.0343862608830448,-0.009759669932382531,0.014262681135404904
1.022922636103152,-2.9636746773357676,-1.9581777702843044,1.3876695888049986,-0.008921317837168466,0.0778014837157679,2.112308262104539,-0.20709516318737708,-0.01311729230869857,0.054084437750204994,0.9125578672181862,0.007838983923356801,0.01610009804147864
1.0429799426934099,-2.962108046331523,-1.9157572991549967,1.3835304344420793,-0.009180321870089863,0.07885079993861432,2.129327275419753,-0.20676110146416393,-0.012777034999755486,0.05083952290754379,0.7890890418902603,0.025589951497443364,0.017922820490003988
1.0630372492836677,-2.960521080934306,-1.8730212394968455,1.379401520087877,-0.009432157409945147,0.0798347813946294,2.1438624061981946,-0.20607075950431086,-0.012400506515074083,0.04755212244887064,0.6642075792691229,0.043461762546809224,0.019726489042178066
1.0830945558739256,-2.9589150958720167,-1.8300195363017482,1.3752899934177998,-0.009676103134628055,0.08075264805439697,2.155887679637695,-0.20502203514074324,-0.01198813152696939,0.04422920466445346,0.5381412737246172,0.06142294682838645,0.02150674425919812
1.1031518624641834,-2.957291420079498,-1.786802608498781,1.3712030378565543,-0.009911447087366423,0.08160375925430485,2.1653816768234884,-0.20361345561124788,-0.011540421896532533,0.04087773784456372,0.4111179196265987,0.07944203409910577,0.023259226702261285
1.1232091690544412,-2.9556513939111992,-1.7434212578364354,1.3671478599900395,-0.010137488420497644,0.08238761369654513,2.172327534728202,-0.20184417755847206,-0.011057976673630678,0.037504690279476005,0.2833653113449198,0.09748755411589638,0.024979576932564744
1.1432664756446993,-2.953996366353871,-1.6999265777648795,1.363131676977255,-0.010353539139244222,0.08310384944911764,2.17671294621186,-0.19971398702992538,-0.01054148209690703,0.03411703025945734,0.15511124324942932,0.11552803663569144,0.026663435511305657
1.1633237822349571,-2.952327692239245,-1.6563698623182055,1.3591617039622002,-0.010558925845489293,0.08375224394582559,2.178530160021886,-0.197223299477978,-0.009991711593780882,0.030721726074780964,0.026583509709980635,0.13353201141542148,0.028306442999681197
1.183381088825215,-2.9506467294567162,-1.6128025149966823,1.3552451414857782,-0.010752991481552126,0.08433271398627973,2.1777759807930988,-0.1943731597598627,-0.009409525780447575,0.027325746015719243,-0.10199009490357419,0.1514680082120159,0.029904239958888544
1.2034383954154728,-2.948954836166035,-1.5692759576490105,1.3513891628977002,-0.010935097073963672,0.08484531573589371,2.1744517690477148,-0.19116524213767216,-0.008795872461878473,0.023936058372540092,-0.23038177622138856,0.16930455678240786,0.031452466950124894
1.2234957020057307,-2.9472533680099815,-1.5258415393545726,1.347600901768386,-0.011104623477242061,0.08529024472588853,2.1685634411953476,-0.1876018502783614,-0.008151786631821064,0.020559631435517645,-0.35836373987360465,0.18701018688352677,0.03294676453458736
1.2435530085959887,-2.945543675327054,-1.4825504453056828,1.343887439300869,-0.011260973117668133,0.0856678358532903,2.1601214695330064,-0.1836859172537465,-0.0074783904727988276,0.017203433494922038,-0.4857081914903743,0.20455342827230405,0.03438277327347315
1.2636103151862466,-2.9438271003641514,-1.4394536056898422,1.340255791742695,-0.01140357173706096,0.08597856338093002,2.1491408822451015,-0.17942100554050533,-0.0067768933561113374,0.013874432841022077,-0.6121873367018467,0.22190281070567197,0.035756133727979436
1.2836676217765044,-2.942104974489261,-1.39660160457199,1.3367128977978302,-0.01153187013655337,0.0862230409374447,2.135641263403434,-0.17481130702017644,-0.0060485918418342,0.010579597764093673,-0.737573381138169,0.23902686394055928,0.0370624864593034
1.3037249283667622,-2.9403786154041356,-1.354044588776755,1.3332656060385601,-0.01164534592036746,0.0864020215172756,2.1196467529672076,-0.16986164297916018,-0.005294869678819098,0.007325896554404743,-0.8616385304294889,0.25589411773389803,0.038297472028642164
1.32378223495702,-2.9386493243569833,-1.3118321767707075,1.3299206623173947,-0.011743505239590115,0.08651639748067064,2.10118604678302,-0.16457746410871799,-0.004517197804693767,0.004120297502225423,-0.9841549902059602,0.2724731018426203,0.03945673099719297
1.3438395415472781,-2.936918383355148,-1.2700133675446128,1.326684697178968,-0.01182588453594855,0.08656720055368328,2.0802923965848668,-0.1589648505049729,-0.0037171343458619758,0.0009697688978285157,-1.1048949660977267,0.2887323460236564,0.04053590392615296
1.363896848137536,-2.9351870523777963,-1.2286364494956823,1.3235642132719454,-0.011892052285585803,0.08655560182817101,2.057003609994141,-0.1530305116689099,-0.002896324617503594,-0.002118720968514065,-1.2236306637349372,0.30464038003393634,0.041530631376719286
1.3839541547277938,-2.933456566588597,-1.187748909309825,1.3205655727609225,-0.011941610742836272,0.08648291176179779,2.0313620505196317,-0.1467817865063742,-0.002056501123574515,-0.00513820380653085,-1.3401342887477425,0.3201657336303918,0.042436553910089166
1.4040114613180517,-2.93172813354841,-1.1473973408439004,1.31769498473833,-0.011974197684001242,0.08635058017803354,2.0034146375575266,-0.14022664332807355,-0.0011994835568066974,-0.008081711325953478,-1.4541780467662904,0.3352769365699537,0.04324931208745974
1.4240687679083095,-2.9300029304279667,-1.1076273540079702,1.3149584926363351,-0.011989488151124385,0.08616019626615223,1.9732128463914078,-0.13337367984957593,-0.00032717879870814304,-0.010942275236509591,-1.5655341434207282,0.34994251860955394,0.043964546470028155
1.4441260744985676,-2.928282101220555,-1.0684834836475503,1.3123619616387463,-0.011987196195767307,0.08591348858123427,1.940812708192257,-0.12623212319131172,0.000558419080437066,-0.013712927247927276,-1.6739747843412054,0.36413100950612254,0.04457789761899163
1.4641833810888254,-2.926566753954702,-1.0300090984258639,1.3099110660929139,-0.01196707662278504,0.08561232504416472,1.906274810018452,-0.11881182987857186,0.0014552288215688059,-0.016386699069935062,-1.779272175157872,0.37781093901659046,0.04508500609554734
1.4842406876790832,-2.9248579579068616,-0.9922463097060913,1.3076112769216337,-0.011928926734101602,0.08525871294163467,1.8696642948157667,-0.11112328584150921,0.0023610819768508885,-0.018956622412263924,-1.8811985215008744,0.39095083689788923,0.0454815124608924
1.504297994269341,-2.9231567408140933,-0.9552358804336235,1.30546784903505,-0.01187258807248547,0.08485479892614078,1.8310508614173733,-0.10317760641513796,0.003273722909671088,-0.021415728984639282,-1.9795260290003633,0.40351923290694913,0.04576305727622405
1.524355300859599,-2.9214640860867505,-0.919017134018316,1.3034858087425585,-0.011797948165325143,0.08440286901598437,1.7905087645438411,-0.09498653633933318,0.004190808794641083,-0.02375705049679211,-2.0740269032864855,0.41548465680070146,0.04592528110273943
1.5444126074498568,-2.9197809300211612,-0.8836278632167374,1.301669941164709,-0.011704942268404642,0.08390534859527188,1.748116814803135,-0.08656244975883198,0.005109909617596533,-0.0259736186584536,-2.1644733499893913,0.4268156383360785,0.04596382450163572
1.5644699140401148,-2.9181081590123137,-0.8491042390144223,1.300024777645107,-0.011593555109679028,0.08336480241391797,1.7039583786906194,-0.07791835022323323,0.006028508175597034,-0.028058465179347847,-2.250637574739228,0.4374807072700091,0.045874328034110075
1.5845272206303727,-2.9164466067665407,-0.8154807195081255,1.2985545831623182,-0.01146382263304995,0.082783934587638,1.658121378589052,-0.06906787068699516,0.0069440000769261006,-0.03000462176920715,-2.332291783166144,0.44744839335942516,0.045652432261359684
1.6045845272206305,-2.914797051514201,-0.7827899587880722,1.2972633437417702,-0.011315833742141127,0.0821655885979582,1.610698292768592,-0.06002527350943976,0.007853693741091235,-0.031805120137758935,-2.409208180900289,0.45668722636125836,0.04529377774458171
1.6246418338108883,-2.9131602132223664,-0.7510627158202102,1.2961547538676559,-0.0111497320440739,0.08151274729220503,1.5617861553867918,-0.05080545045474949,0.008754810398823837,-0.03345299199473217,-2.481158973571812,0.4651657360324387,0.04479400504497335
1.6446991404011462,-2.9115367508075023,-0.7203277633284622,1.2952322038948354,-0.010965717593242738,0.0808285328835141,1.511486556488602,-0.04142392269196704,0.009644484092079285,-0.03494126904985706,-2.54791636681086,0.47285245212989835,0.04414875472373172
1.6647564469914042,-2.909927259348156,-0.6906117966769788,1.2944987674607393,-0.010764048635090763,0.08011620695082566,1.459905642006372,-0.03189684079499888,0.010519761674036879,-0.03626298301286068,-2.6092525662475823,0.479715904410567,0.04335366734205402
1.684813753581662,-2.908332267297635,-0.6619393427523887,1.2939571888972725,-0.010545043349885274,0.07937917043888243,1.4071541137598462,-0.02224098474261016,0.011377602809099855,-0.03741116559347246,-2.664939777512129,0.48572462263137656,0.04240438346113748
1.70487106017192,-2.9067522336966958,-0.6343326688460522,1.293609870642715,-0.01030908159649327,0.07862096365823712,1.353347229456167,-0.012473763918429803,0.01221487997289543,-0.038378848501421425,-2.7147502062346445,0.49084713654925755,0.041296543642179176
1.7249283667621778,-2.9051875453862244,-0.6078116915363123,1.2934588606536253,-0.01005660665615695,0.07784526628524535,1.2986048026898733,-0.0026132171109465308,0.013028378452274727,-0.03915906344643649,-2.7584560580452826,0.4950519759211412,0.04002578844637635
1.7449856733524356,-2.903638514219924,-0.5823938855707479,1.2935058398167447,-0.009788126976269273,0.07705589736206786,1.2430512029429006,0.0073219874864889345,0.013814796345312831,-0.039744842138246105,-2.79582953857419,0.498307670503958,0.03858775843492617
1.7650429799426934,-2.902105374276993,-0.5580941927484249,1.2937521093608975,-0.009504217914149437,0.07625681529667183,1.1868153555845833,0.017312552275664306,0.01457074456130877,-0.04012921628657937,-2.8266428534515144,0.5005827500546403,0.03697809416902578
1.7851002865329515,-2.9005882790748165,-0.5349249308021479,1.2941985782688965,-0.009205523480818429,0.07545211786283001,1.1300307418716495,0.0273385502535064,0.015292746820785519,-0.040305217601166954,-2.8506682083074053,0.5018457443301179,0.03519243620987232
1.8051575931232093,-2.8990872987816427,-0.5128957022807146,1.2948457506894437,-0.008892758084774542,0.07464604220011894,1.0728353989482282,0.03737942501208069,0.015977239655489965,-0.040265877791733296,-2.8676778087720103,0.5020651830873213,0.033226425118663035
1.8252148997134672,-2.897602417429272,-0.4920133034311647,1.2956937133490338,-0.00856670827576889,0.0738429648139225,1.015371919845843,0.04741399073859043,0.016620572408392983,-0.04000422856801167,-2.877443860475479,0.5012095960831836,0.03107570145659507
1.845272206303725,-2.8961335301257383,-0.4722816330810339,1.296742122963857,-0.00822823448858092,0.07304740157542877,0.9577874534834159,0.05742043221537818,0.017219007233689358,-0.03951330163972844,-2.87973856904796,0.49924751307463344,0.028735905784865595
1.8653295128939829,-2.8946804402679938,-0.4537016015206056,1.2979901936517018,-0.007878272786793952,0.07226400772163188,0.9002337046672639,0.06737630481992585,0.017768719096797836,-0.03878612871661313,-2.8743341401196023,0.49614746381860303,0.02620267866467178
1.885386819484241,-2.8932428567545934,-0.4362710393851629,1.2994366843438576,-0.007517836606570691,0.07149757785533106,0.842866934091103,0.07725853452485199,0.01826579577436111,-0.037815741508394396,-2.8610027793205535,0.49187797807202327,0.0234716606572108
1.9054441260744988,-2.891820391198377,-0.41998460653724023,1.3010798861970179,-0.007148018500428748,0.07075304594513243,0.7858479583360456,0.08704341789791581,0.018706237854245803,-0.03659517172480076,-2.839516692280962,0.48640758559182495,0.020538492323679824
1.9255014326647566,-2.8904125551391546,-0.4048337009488762,1.302917610005182,-0.006769991881016156,0.07003548532544457,0.7293421498706,0.09670662210201386,0.019085958735542488,-0.03511745107556141,-2.809648084630977,0.479704816134939,0.017398814225275994
1.9455587392550144,-2.889018757256391,-0.3908063675838654,1.3049471736115599,-0.0063850127648869175,0.06935010869648295,0.6735194370506742,0.10622318489518157,0.019400784628565676,-0.033375611270408445,-2.7711691620007484,0.47173819945829754,0.01404826692319653
1.9656160458452723,-2.8876383005818873,-0.3778872072800099,1.3071653893204722,-0.005994421516276481,0.06870226812426905,0.6185543041195706,0.11556751463059389,0.019646454554853827,-0.0313626840190655,-2.723852130020423,0.4624762653188301,0.010482490978638605
1.9856733524355303,-2.8862703797124665,-0.36605728563137185,1.309568551309255,-0.005599644590877298,0.06809745504062992,0.5646257912079902,0.12471339025656247,0.019818620347169344,-0.029071701031262442,-2.6674691943201494,0.4518875434734677,0.006697126952799367
2.005730659025788,-2.8849140780226574,-0.3552940418705256,1.3121524230401624,-0.005202196279614333,0.06754130024319593,0.51191749433403,0.13363396131653993,0.01991284664949857,-0.026495694016732685,-2.601792560530078,0.43994056367914314,0.0026878154068759874
2.025787965616046,-2.883568364877378,-0.34557119775080936,1.3149122246722684,-0.004803680452420579,0.0670395738954066,0.4606175654031849,0.14230174794911477,0.019924610917051805,-0.02362769468520165,-2.526594434280357,0.4266038556927867,-0.0015498030979343314
2.045845272206304,-2.882232092844619,-0.3368586664285776,1.3178426204733704,-0.004405792302012589,0.06659818552650298,0.41091871220834597,0.15068864088801703,0.019849303416263266,-0.020460734746395204,-2.441647021201132,0.4118459492713269,-0.006020088000434456
2.0659025787965617,-2.8809039949081283,-0.329122461345453,1.3209377062318914,-0.004010320087665989,0.06622318403153526,0.363018198429802,0.1587659014621131,0.01968222722479114,-0.016987845910046317,-2.346722526922555,0.39563537417169736,-0.010727398739427185
2.0859598853868198,-2.8795826816800956,-0.3223246051105783,1.3241909966687841,-0.003619146878990999,0.0659207576713543,0.317117843635238,0.16650416159540982,0.019418598231517543,-0.013202059885881745,-2.241593157074773,0.3779406601508286,-0.015676094753715418
2.1060171919770774,-2.8782666386138347,-0.31642303838286906,1.3275954128494312,-0.0032342522997079693,0.0656972340726194,0.2734240232797375,0.17387342380705118,0.01905354513654853,-0.009096408383634902,-2.1260311172879365,0.3587303369656518,-0.020870535482101882
2.1260744985673354,-2.8769542232164684,-0.3113715287532647,1.3311432695955514,-0.002857714271422877,0.06555908022779788,0.23214766870577996,0.1808430612113201,0.018582109451214128,-0.004663923113030322,-1.9998086131921928,0.3379729343730973,-0.02631508036338942
2.1461318051575935,-2.875643662261612,-0.3071195796269811,1.3348262628970988,-0.0024917107574028642,0.06551290249515707,0.19350426714324168,0.18738181751763872,0.017999245498068264,0.00010236421620390956,-1.8626978504176896,0.31563698213009594,-0.032014088836380905
2.166189111747851,-2.874333049002057,-0.30361233910576313,1.3386354573241688,-0.0021385215063517544,0.06556544659877228,0.15771386170939644,0.19345780703056714,0.017299820410888848,0.005209421894337041,-1.7144710345945775,0.29169100999358033,-0.03797192033987915
2.186246418338109,-2.873020340382457,-0.30079050887013564,1.342561273438898,-0.0018005297961855725,0.0657235976285242,0.12500105140891501,0.1990385146498047,0.016478614134677702,0.010664218211638321,-1.554900371353004,0.2661035477204803,-0.04419293431268696
2.206303724928367,-2.871703354252008,-0.29859025306165643,1.3465934752073696,-0.001480224177808069,0.06599438004010061,0.09559499113386502,0.20409079587018897,0.015530319425660617,0.01647372145838233,-1.3837580663231184,0.23884312506772654,-0.05068149019360721
2.226361031518625,-2.8703797665771345,-0.2969431071651678,1.350721157411514,-0.0011802002188862357,0.06638495765499175,0.06972939166371113,0.2085808767816954,0.014449541851287303,0.0226448999248392,-1.2008163251350652,0.20987827179224938,-0.05744194742144275
2.2464183381088825,-2.8690471086541733,-0.29577588689104894,1.3549327330610133,-0.0009031622476258405,0.0669026336604932,0.04764251966531559,0.2124743540694402,0.013230799790231444,0.029184721901279076,-1.005847353419,0.1791775176509831,-0.06447866543499628
2.2664756446991405,-2.86770276432206,-0.2950105970574678,1.3592159208052026,-0.0006519250965469276,0.06755485060971,0.029577197692936805,0.21573619501367614,0.011868524432390646,0.03610015567797653,-0.7986233568050669,0.14670939240085223,-0.07179600367307072
2.2865329512893986,-2.8663439671750046,-0.2945643404726331,1.363557732344974,-0.000429415846259354,0.06834919042154802,0.015780804188230864,0.21833073748979534,0.01035705977888646,0.04339816954520259,-0.5789165409234169,0.11244242579879504,-0.07939832157446886
2.306590257879656,-2.864967797775186,-0.29434922681704645,1.3679444598446784,-0.0002386755692383054,0.06929337438072442,0.006505273480250796,0.22022168996832728,0.008690662642064384,0.051085731793218514,-0.3464991114041963,0.07634514760173916,-0.08728997857799356
2.3266475644699143,-2.8635711808654274,-0.2942722815257547,1.3723616633440288,-8.286107359981841e-05,0.07039526313775248,0.002007095785446023,0.22137213151494348,0.0068635026454938585,0.05916981071230509,-0.10114327387755595,0.0383860875666171,-0.09547533412244763
2.346704871060172,-2.8621502016236504,-0.2942355783025987,1.3767942581625123,3.47034862065562e-05,0.07196883316013399,0.0024460035200013345,0.22178956206232747,0.004847290645377056,0.15917760356210303,0.12657703730223877,0.01208106499229754,-0.1106291204727506
2.36676217765043,-2.8606605065552837,-0.2941502124112911,1.381232470818837,0.0001076701886598382,0.07791300222335576,0.006639963115326168,0.22203181575782602,0.0023582962547597282,0.43288022769521767,0.2913927527515545,0.01211480206470325,-0.13795472939400152
2.386819484240688,-2.8589981271507896,-0.2939485721887014,1.3856755235762752,0.00012551751183068782,0.08919049127790374,0.01404515966636155,0.22227299020227867,-0.0006583960353493534,0.6925502033223614,0.44772537364558773,0.011973947741540297,-0.16340496406020374
2.4068767908309456,-2.857059187299792,-0.2935681196583176,1.3901233602546674,7.80641511249685e-05,0.1055230833913002,0.024493409728338657,0.22250964203901147,-0.004165641958145867,0.9384311342072151,0.5957227446179552,0.0116633491468964,-0.18701614630102176
2.4269340974212037,-2.8547453265098106,-0.2929496509435962,1.394575856776147,-4.4135577081302256e-05,0.12663743370633465,0.03781948674915958,0.22273842485383807,-0.00812702368341877,1.1707666241134387,0.7355327103022715,0.01118785340487172,-0.2088245979461202
2.4469914040114613,-2.8519636024647577,-0.29203723713010904,1.3990328231039877,-0.0002498062641738194,0.15226506944107174,0.053861121069399866,0.22295608917505105,-0.012506849817550321,1.3898002768047077,0.8673031153321524,0.010552307639557515,-0.2288666408251637
2.4670487106017194,-2.8486263935834315,-0.2907781651276897,1.4034940051814544,-0.0005469659380318556,0.18214238988884734,0.07245899992230694,0.22315948247342596,-0.017270155403516056,1.595775696044675,0.991181804341212,0.009761558975053965,-0.24717859676781676
2.4871060171919774,-2.84465130157801,-0.2891228785325802,1.4079590868706517,-0.0009429405917601285,0.21601066641827468,0.09345676743380038,0.22334554916221921,-0.022382701920884825,1.7889364855970034,1.107316621963066,0.008820454535447914,-0.2637967876037441
2.507163323782235,-2.8399610540125475,-0.2870249184895772,1.4124276918913747,-0.0014443787124206631,0.25361604247323516,0.11670102462247231,0.22351133059717046,-0.027810977285818755,1.9695262492253705,1.2158554128313306,0.0077338414448421405,-0.2787575351626103
2.527220630372493,-2.8344834068614646,-0.28444086455417883,1.4168993857599574,-0.002057265809764662,0.294709533572887,0.14204132939958714,0.22365396507649976,-0.03352219585107326,2.137788590693434,1.3169460215796185,0.0065065668273270455,-0.2920971612740798
2.5472779369627507,-2.828151047068053,-0.28133027555473167,1.4213736777281252,-0.002786938944964369,0.33904702731166236,0.16933019656908135,0.22377068784091128,-0.03948429840599707,2.293967113764867,1.4107362928415461,0.005143477806997504,-0.30385198776781736
2.567335243553009,-2.8209014951029565,-0.2776556304545763,1.4258500227218398,-0.0036381012593449365,0.3863892833592628,0.1984230978275641,0.2238588310735885,-0.0456659521765322,2.438305422203328,1.4973740712507304,0.0036494215079482806,-0.31405833647348774
2.587392550143267,-2.8126770075226744,-0.27338226921419456,1.4303278232801524,-0.004614836503116284,0.436501933460666,0.22917846176431642,0.2239158239001988,-0.05203655082521392,2.571047119772483,1.5770072014407832,0.002029245054276929,-0.3227525292207553
2.6074498567335245,-2.803424479528054,-0.26847833365335605,1.4348064314940525,-0.005720623564104975,0.48915548143612453,0.26145767386129204,0.22393919238888949,-0.05856621445117084,2.6924358102359984,1.6497835280453217,0.00028779557007468926,-0.3299708878392847
2.6275071633237825,-2.7930953475227827,-0.26291470831326447,1.4392851509453168,-0.006958350996486079,0.5441253031811597,0.2951250764931167,0.22392655955029195,-0.06522578959012482,2.8027150973575425,1.7158508956979603,-0.0015700798205636746,-0.3357497341587405
2.64756446991404,-2.7816454916718887,-0.25666496131870437,1.4437632386453605,-0.008330331549515032,0.6011916466665709,0.33004796892708854,0.22387564533751783,-0.07198684921439107,2.9021285849007796,1.7753571490323146,-0.003539533993542343,-0.3401253900087874
2.667621776504298,-2.769035138460226,-0.2497052852401873,1.4482399069740837,-0.009838316696259508,0.6601396319384276,0.3660966073231783,0.2237842666461617,-0.07882169273287803,2.9909198766293716,1.8284501326819989,-0.0056157198247646645,-0.3431341772190899
2.6876790830945563,-2.7552287632509813,-0.2420144379560993,1.4527143256187267,-0.011483511162331284,0.7207592511180723,0.40314420473402823,0.22365033731429995,-0.08570334599108749,3.06933257630699,1.8752776912806297,-0.007793790190138705,-0.34481241761931264
2.707736389684814,-2.7401949928441574,-0.23357368351484628,1.4571856235127136,-0.013266587454618107,0.7828453684021249,0.44106693110495404,0.22347186812248915,-0.09260556127111448,3.137610287697294,1.9159876694618223,-0.010068897965569312,-0.3451964330391204
2.727793696275072,-2.7239065080350717,-0.22436673299700138,1.4616528907745046,-0.01518770039001555,0.8461977200624727,0.47974391327394234,0.2232469667937708,-0.09950281729164731,3.195996614563954,1.9507279118591896,-0.01243619602695989,-0.3443225453081776
2.7478510028653296,-2.7063399461728523,-0.21437968537745106,1.4661151806464459,-0.017246501624158903,0.9106209144462826,0.5190572349716535,0.22297383799366524,-0.10637031920796766,3.244735160670637,1.9796462631063496,-0.014890837250218558,-0.3422270762561489
2.7679083094555876,-2.6874758037189315,-0.20360096838754213,1.4705715114336193,-0.01944215418015499,0.9759244319759898,0.5588919368214191,0.22265078333017674,-0.11318399861195047,3.2840695297810014,2.002890567836915,-0.017427974511247946,-0.33894634771269894
2.7879656160458457,-2.6672983388055393,-0.19202127937722785,1.4750208684426913,-0.0217733469773141,1.041922625149306,0.5991360163392438,0.22227620135379067,-0.11992051353206394,3.314243325658717,2.020608670684502,-0.02004276068595512,-0.33451668150749214
2.8080229226361033,-2.645795473794197,-0.17963352617721468,1.4794622059207614,-0.024238309359881804,1.108434718539212,0.6396804279338033,0.22184858755747444,-0.12655724843336952,3.3355001520674485,2.032948416282724,-0.02273034865024459,-0.328974399470193
2.8280802292263614,-2.622958697834221,-0.16643276796110898,1.4838944489942172,-0.026834825625770845,1.1752848087939682,0.6804190829064477,0.22136653437667747,-0.13307231421752214,3.348083612770864,2.0400576492652003,-0.025485891280021322,-0.32235582343046676
2.848137535816619,-2.5987829694212,-0.15241615610756326,1.4883164956075758,-0.02956024955529299,1.2423018646371027,0.7212488494511975,0.22082873118933122,-0.13944454822276986,3.352237311532626,2.042084214265542,-0.028304541451190546,-0.3146972752179774
2.868194842406877,-2.573266618955506,-0.137582875062423,1.4927272184623404,-0.032411518939890874,1.3093197268674202,0.7620695526547461,0.220233964315848,-0.14565351422395392,3.3482048521164023,2.039175955917367,-0.03118145203965894,-0.3060350766623897
2.888252148997135,-2.546411251300779,-0.12193408320087296,1.4971254669558456,-0.03538517011086994,1.3761771083589973,0.8027839744964597,0.21958111701912325,-0.15167950243250922,3.336229838285856,2.031480718854289,-0.03411177592133019,-0.2964055495933686
2.9083094555873927,-2.5182216483424256,-0.10547285368958387,1.50151006912011,-0.038477352468130215,1.4427175940611834,0.8432978538483757,0.21886916950453403,-0.15750352949646354,3.3165558738046546,2.0191463477099227,-0.03709066597211019,-0.2858450158405782
2.928366762177651,-2.4887056715461138,-0.08820411534885911,1.5058798335606844,-0.04168384300889827,1.5087896409986032,0.8835198864752053,0.21809719891993892,-0.1631073385004383,3.2894265624364625,2.002320687117884,-0.04011327506790452,-0.2743897972336833
2.9484240687679084,-2.4578741645162627,-0.07013459351478084,1.5102335513954996,-0.04500006085645896,1.5742465782711526,0.9233617250343306,0.2172643793556785,-0.16847339896564792,3.255085507944946,1.9811515817117875,-0.04317475608461796,-0.2620762156023484
2.9684813753581665,-2.425740855554549,-0.051272750901357446,1.5145699981937233,-0.048421081788887446,1.6389466070540033,0.962737979075807,0.21636998184457548,-0.17358490684990038,3.2137763140937707,1.9557868761252508,-0.04627026189815542,-0.24894059277623865
2.988538681948424,-2.3923222602183816,-0.03162872846266859,1.5188879359145966,-0.051941652767780934,1.7027528005975976,1.001566215042362,0.21541337436193395,-0.17842578454759678,3.1657425846466007,1.9263744149918847,-0.04939494538442357,-0.2350192505850177
3.008595988538682,-2.3576375838794177,-0.011214286255013556,1.5231861148462988,-0.05555620646699056,1.765533104227652,1.0397669562693947,0.21439402182554074,-0.1829806808897315,3.1112279233671036,1.893062042945308,-0.052543959419326214,-0.220348510858351
3.02865329512894,-2.321708624282043,0.0099572557009436,1.5274632755447857,-0.05925887580135334,1.8271603353451578,1.0772636829849773,0.2133114860956638,-0.1872349711438923,3.0504759340189422,1.8559976046191342,-0.05571245687876858,-0.2049646954259028
3.048710601719198,-2.2845596741018697,0.031871076558027026,1.531718150772644,-0.06304350845542396,1.8875121834263764,1.1139828323098535,0.21216542597505367,-0.19117475701426015,2.983730220365784,1.8153289446469776,-0.058895590638657014,-0.18890412611733742
3.068767908309456,-2.2462174235042367,0.054510913780401925,1.5359494674379424,-0.06690368141220664,1.946471210022847,1.1498537982574408,0.21095559720894203,-0.1947868666416095,2.9112343861712975,1.7712039076624566,-0.06208851357489764,-0.1722031247623202
3.0888252148997135,-2.206710862702692,0.07785912228142935,1.5401559485330738,-0.07083271548188697,2.0039248487613768,1.1848089317338264,0.20968185248504267,-0.19805885460330763,2.833232035199141,1.7237703382991827,-0.06528637856339214,-0.15489801319051513
3.1088825214899716,-2.1660711845175045,0.10189673356151818,1.5443363150736176,-0.07482368983056399,2.059765405344053,1.2187835405377738,0.2083441414335519,-0.20097900191331597,2.7499667712129887,1.6731760811907745,-0.06848433848004931,-0.13702511323158725
3.1289398280802296,-2.124331686934137,0.1266035148459797,1.5484892880371741,-0.0788694565089817,2.113890057548229,1.2517158893607148,0.20694251062714697,-0.20353631602218816,2.661682197976497,1.619568980970843,-0.07167754620077305,-0.11862074671520054
3.1489971346704873,-2.0815276756617633,0.15195802822288024,1.5526135903022282,-0.08296265498126122,2.1662008552265344,1.2835471997867547,0.20547710358098775,-0.20572053081707195,2.568621919253338,1.563096882273007,-0.07486115460146858,-0.0997212354710203
3.1690544412607453,-2.0376963666917454,0.1779376897808952,1.55670794858699,-0.08709572665363258,2.2166047203068753,1.3142216502926727,0.2039481607527156,-0.20752210662170803,2.4710295388071746,1.503907629730879,-0.0780303165580416,-0.08036290132871068
3.189111747851003,-1.992876788856137,0.20451882874716198,1.5607710953882474,-0.09126092940316644,2.265013446792426,1.343686376247919,0.20235601954245452,-0.20893223019643065,2.3691486604016716,1.4421490679780755,-0.08118018494639645,-0.060582066117936255
3.209169054441261,-1.9471096863861748,0.2316767466251344,1.5648017709202167,-0.09545035210650625,2.311343700761638,1.3718914699146159,0.2007011142928088,-0.20994281473816692,2.263222887800498,1.3779690416482124,-0.08430591264243925,-0.04041505166836204
3.229226361031519,-1.9004374214707715,0.2593857763324345,1.568798725053388,-0.09965592916859967,2.355517020368232,1.3987899804475574,0.19898397628886616,-0.21054649988043747,2.1534958247673157,1.311515395374903,-0.0874026525220748,-0.019898179809652236
3.2492836676217767,-1.8529038768150197,0.2876193413387075,1.5727607192533835,-0.10386945505143103,2.3974598158412084,1.4243379138942132,0.1972052337581956,-0.21073665169335656,2.040211075065794,1.242935973791765,-0.09046555746120943,0.0009322276285281539
3.2693409742120347,-1.8045543581986694,0.31635001480347485,1.5766865285197957,-0.10808259880275263,2.4371033694848334,1.4484942331947204,0.19536561187084828,-0.21050736268363104,1.9236122424595936,1.17237862153241,-0.09348978033574729,0.02203984881651505
3.2893982808022924,-1.7554354970346406,0.3455495787139869,1.5805749433250467,-0.11228691858481694,2.4743838356786516,1.471220858181892,0.1934659327393572,-0.20985345179456164,1.8039429307123827,1.0999911832304556,-0.09647047402159314,0.04338836192464347
3.3094555873925504,-1.7055951529275066,0.3751890830230776,1.5844247715532331,-0.11647387620310842,2.5092422408774797,1.4924826655812118,0.19150711541873666,-0.20877046440604208,1.6814467435878258,1.0259215035195166,-0.09940279139465313,0.06494144512324887
3.3295128939828085,-1.6550823162319912,0.4052389047870168,1.5882348404389757,-0.12063485163507522,2.541624483611407,1.5122474890108366,0.18949017590648343,-0.2072546723345596,1.556367284849593,0.9503174270332082,-0.10228188533083404,0.0866627765826667
3.349570200573066,-1.6039470106114644,0.43566880730336494,1.5920039985062724,-0.12476115755886129,2.571481334485797,1.5304861189815955,0.18741622714257627,-0.2053030738331945,1.4289481582613441,0.8733267984051456,-0.10510290870603778,0.10851603447323224
3.369627507163324,-1.5522401955964344,0.4664479992488244,1.595731117507341,-0.1288440538820379,2.5987684361812846,1.5471723028969881,0.1852864790094757,-0.20291339359162036,1.2994329675867458,0.7950974622689421,-0.1078610143961718,0.13046489696528119
3.3896848137535818,-1.5000136691430497,0.4975451938170958,1.59941509436148,-0.1328747622703361,2.623446303453783,1.56228274505319,0.1831022383321238,-0.2000840827361045,1.168065316589467,0.7157772632582166,-0.11055135527714088,0.1524730422291484
3.40974212034384,-1.4473199701915789,0.528928667856729,1.6030548530939044,-0.13684448067637783,2.64548032313447,1.575797106639044,0.18086490887794515,-0.19681431882950667,1.0350888090331685,0.6355140460065802,-0.11316908422485095,0.17450414843516993
3.429799426934098,-1.3942122812249227,0.5605663210089783,1.606649346774609,-0.1407443978684085,2.6648407541298065,1.5876980057360708,0.17857599135684543,-0.19310400587128101,0.9007470486815182,0.55445565514765,-0.11570935411520655,0.19652189375368084
3.4498567335243555,-1.3407443308270945,0.5924257348456539,1.6101975594572056,-0.14456570795902823,2.6815027274215204,1.5979710173184591,0.17623708342121291,-0.188953774297474,0.7652836392981833,0.47274993531504195,-0.11816731782411272,0.21848995635501628
3.4699140401146136,-1.2869702962417224,0.6244742320069775,1.6136985081177833,-0.14829962493392415,2.6954462460666138,1.6066046732530719,0.17384987966591803,-0.18436498098072596,0.628942184646826,0.3905447311423693,-0.12053812822747556,0.2403720144095121
3.489971346704871,-1.2329447059305425,0.6566789353394347,1.6171512445937517,-0.15193739718060223,2.7066561851973643,1.6135904622994446,0.1714161716283117,-0.17933970923027026,0.49196628849111457,0.30798788726324866,-0.12281693820119943,0.2621317460875036
3.5100286532951293,-1.1787223421318902,0.6890068270336276,1.62055485752269,-0.1554703220171187,2.71512229202132,1.6189228301097829,0.16893784778822818,-0.1738807687919336,0.35459955459471293,0.22522724831129493,-0.12499890062119023,0.28373282955932577
3.530085959885387,-1.1243581434191987,0.7214248077621312,1.6239084742812027,-0.1588897602208128,2.720839185821305,1.6225991792289678,0.16641689356798284,-0.167991695848136,0.21708558672128342,0.14241065892012106,-0.12707916836335253,0.3051389429953149
3.550143266475645,-1.0699071072594932,0.7538997558173421,1.6272112629237638,-0.16218715055703753,2.723806357955416,1.6246198690945508,0.1638553913323736,-0.16167675301789097,0.07966798863449975,0.05968596372334534,-0.1290528943035929,0.3263137645658054
3.570200573065903,-1.0154241925718823,0.7863985862493368,1.6304624341215677,-0.16535402430789248,2.7240281718570216,1.6249882160367553,0.1612555203886794,-0.15494092935680492,-0.057409635901977896,-0.022798992645418403,-0.13091523131781502,0.34722097244113304
3.5902578796561606,-0.9609642222860547,0.8188883100037216,1.6336612431013795,-0.1683820198009551,2.721513863034763,1.623710493278478,0.15861955698666186,-0.14778994035707782,-0.19390368312448247,-0.10489636555255344,-0.13266133228192523,0.367824244791633
3.6103151862464187,-0.9065817859007749,0.8513360930594892,1.6368069915843844,-0.1712628969380129,2.7162775390725593,1.620795930935288,0.15594987431856355,-0.1402302279475029,-0.3295705492693506,-0.1864583103644477,-0.13428635007182832,0.3880872597876413
3.6303724928366763,-0.8523311420423745,0.8837093155668683,1.6398990297250369,-0.17398855172379513,2.7083381796295978,1.616256716015426,0.1532489425191106,-0.13226896049346656,-0.4641666305729141,-0.2673369824474843,-0.13578543756343042,0.4079736955994928
3.6504297994269344,-0.7982661210232497,0.9159756309851805,1.6429367580499117,-0.17655103079470466,2.697719636440342,1.610107992419805,0.15051932866550943,-0.1239140327969486,-0.597448323271508,-0.3473845371680475,-0.13715374763263588,0.42744723039752297
3.6704871060171924,-0.7444400274003542,0.9481030252206923,1.6459196293965517,-0.17894254594755,2.6844506333145284,1.6023678609420111,0.1477636967774485,-0.1151740660965221,-0.7291720236014717,-0.4264531298925245,-0.1383864331553495,0.44647154235206776
3.69054441260745,-0.690905542533695,0.980059875764468,1.6488471508523181,-0.18115548866827696,2.668564766137165,1.5930573792683018,0.14498480781709921,-0.10605840806735349,-0.8590941277991302,-0.504394915987298,-0.13947864700747825,0.4650103096334616
3.710601719197708,-0.6377146271448259,1.011815010830224,1.6517188856932419,-0.1831824446607006,2.6501005028685363,1.582200561977608,0.14218551968911397,-0.09657713282120244,-0.9869710321008262,-0.5810620508187525,-0.14042554206492452,0.4830272104120405
3.7306590257879657,-0.5849184238753419,1.0433377684921823,1.65453445532287,-0.1850162083752371,2.629101183544196,1.5698243805415313,0.1393687872406273,-0.08674104090642176,-1.1125591327428908,-0.6563066897532752,-0.1412222712035971,0.5004859228581399
3.7507163323782238,-0.5325671598453741,1.0745980558229238,1.6572935412111183,-0.1866497975376359,2.6056150202749757,1.5559587633243472,0.13653766226125597,-0.0765616593079578,-1.2356148259616557,-0.729980988157249,-0.14186398729940075,0.5173501251420948
3.770773638968482,-0.4807100492120848,1.105566408031241,1.6599958868331188,-0.1880764676777108,2.5796950972469768,1.5406365955830026,0.13369529348309772,-0.06605124144735004,-1.3558945079934608,-0.8019371013970584,-0.14234584322823784,0.5335834954342409
3.7908309455587395,-0.4293951957281612,1.1362140475999931,1.6626412996080715,-0.1892897266580728,2.551399370721575,1.523893719467117,0.13084492658073343,-0.05522276718273132,-1.4731545750746382,-0.8720271848390904,-0.1426629918660154,0.5491497119049135
3.8108882521489975,-0.3786694953003104,1.1665129434239567,1.6652296528380912,-0.19028334920286114,2.5207906690354203,1.5057689340189817,0.1279899041712249,-0.04408994280882778,-1.5871514234415223,-0.9401033938497285,-0.14281058608863928,0.5640124527244482
3.830945558739255,-0.3285785385477529,1.1964358699476834,1.6677608876470602,-0.19105139142647576,2.4879366926004334,1.4863039951735608,0.125133665814116,-0.032667201056958584,-1.6976414493304475,-1.006017883795358,-0.14278377877201387,0.57813539606318
3.851002865329513,-0.27916651336072,1.225956466303348,1.6702350149194758,-0.1915882053623088,2.4529100139038125,1.4655436157584913,0.12227974801143326,-0.020969701095036902,-1.8043810489777474,-1.069622810042363,-0.14257772279204528,0.5914822200914446
3.8710601719197713,-0.23047610745894498,1.255049295448607,1.672652117239301,-0.19188845349147657,2.415788077508025,1.4435354654940808,0.11943178420768397,-0.009013328527568379,-1.9071266186197589,-1.1307703279571286,-0.14218757102463742,0.6040166029795775
3.891117478510029,-0.18254841095015872,1.2836899033044482,1.6750123508288133,-0.1919471232715515,2.376653200050815,1.4203301709933118,0.11659350478985786,0.003185304604347558,-2.0056345544928145,-1.18931259290604,-0.1416084763456963,0.6157022228979134
3.911174785100287,-0.1354228188885852,1.311854877893047,1.6773159474874553,-0.19175954166529394,2.335592570245197,1.3959813157618364,0.11376873708742674,0.01560885982301835,-2.0996612528332483,-1.245101760255483,-0.14083559163112858,0.626502758016789
3.9312320916905446,-0.08913693383343507,1.3395219084756183,1.6795632165306833,-0.19132138966938395,2.2926982488794607,1.37054544019798,0.11096140537234422,0.0282392722141582,-2.188963109877396,-1.2979899853718395,-0.13986406975683685,0.6363818865065383
3.9512893982808026,-0.04372646840740063,1.3666698446902699,1.681754546728818,-0.19062871684315336,2.248067168817168,1.3440820415927406,0.10817553085904552,0.04105775042688796,-2.273296521861592,-1.3478294236214974,-0.13868906359872835,0.6453032865374972
3.9713467048710607,0.0007748521448506795,1.3932787556898565,1.6838904082458934,-0.18967795583731728,2.2018011349971536,1.3166535741297882,0.10541523170444789,0.05404477667373521,-2.352417885022171,-1.394472230370841,-0.1373057260327073,0.6532306362800014
3.9914040114613183,0.044335387398178605,1.419329989279832,1.685971354578507,-0.18846593692270655,2.154006824433529,1.288325448885466,0.1026847230079504,0.06718010673063403,-2.4260835955954643,-1.4377705609862532,-0.13570920993467983,0.6601276139043862
4.011461318051576,0.08692567918847899,1.4448062310561047,1.6879980244946688,-0.186989902518999,2.1047957862156768,1.2591660338287896,0.09998831681143461,0.08044276993692508,-2.4940500498178095,-1.47757657083412,-0.13389466818055035,0.6659578975809868
4.031518624641834,0.12851854905419002,1.4696915635428907,1.6899711439726506,-0.18524752172345166,2.0542844415082495,1.229246653821444,0.09733042209926324,0.09381106919535659,-2.5560736439255414,-1.5137424152808268,-0.1318572536462252,0.6706851654801385
4.051575931232092,0.16908919567779296,1.4939715253305654,1.6918915281398377,-0.1832369048396325,2.0025940835511786,1.1986415906177894,0.09471554479828104,0.10726258097208269,-2.611910774154992,-1.546120249692758,-0.12959211920760855,0.674273095772177
4.07163323782235,0.20861529232732198,1.5176331702135186,1.6937600832115756,-0.1809566179061524,1.949850877659666,1.1674280828648578,0.09214828777781481,0.12077415529666441,-2.6613178367424997,-1.5745622294363,-0.12709441774060695,0.676685366627438
4.091690544412608,0.24707708429786823,1.5406651263280078,1.695577808430023,-0.17840569722539687,1.8961858612241849,1.135686326102352,0.08963335084967361,0.13432191576207003,-2.7040512279243956,-1.5989205098778339,-0.12435930212112231,0.6778856562162556
4.111747851002866,0.2844574863530831,1.56305765529001,1.6973457980029973,-0.17558366389225807,1.8417349437104868,1.1034994727626497,0.08717553076814744,0.14788125952467346,-2.739867343937015,-1.6190472463837493,-0.12138192522506501,0.677837642708967
4.131805157593123,0.3207421801666881,1.584802711333078,1.6990652430428286,-0.17249053832286648,1.7866389066595927,1.0709536321707982,0.08477972123000876,0.1614268573042563,-2.768522581016694,-1.6347945943204287,-0.11815743992833769,0.6765050042759064
4.151862464183381,0.35591971176397585,1.605894000446191,1.7007374335052057,-0.16912685478332312,1.7310434036877989,1.0381378705445194,0.08245091287451212,0.17493265338400624,-2.789773335399767,-1.6460147090542572,-0.11468099910684465,0.6738514190874095
4.1719197707736395,0.38998158896331964,1.6263270395116105,1.7023637601280286,-0.16549367591843095,1.6750989604866726,1.0051442109942057,0.08019419328339428,0.1883718656105182,-2.8033760033225654,-1.6525597459516197,-0.11094775563649317,0.6698405653138118
4.191977077363897,0.42292237881767486,1.6460992154427312,1.703945716370256,-0.16159260728042713,1.6189609748230582,0.9720676335229236,0.07801474698087252,0.20171698539379299,-2.809086981021426,-1.6542818603788991,-0.10695286239318558,0.6644361211254485
4.212034383954155,0.4547398050560877,1.6652098443219374,1.7054849003507562,-0.15742581185771462,1.5627897165390696,0.9390060750264099,0.07591785543364726,0.21493977770723918,-2.8066626647326824,-1.651033207702484,-0.10269147225283104,0.6576017646926552
4.232091690544413,0.48543484552519967,1.683660230538454,1.7069830167871554,-0.15299602460359413,1.506750327552095,0.9060604292930742,0.07390889705090031,0.2280112810876714,-2.7958594506926717,-1.6426659432887574,-0.09815873809133224,0.6493011741857673
4.252148997134671,0.5150118296307514,1.7014537259262008,1.7084418789346902,-0.14830656696499617,1.4510128218547975,0.873334547004,0.07199334718429573,0.24090180763531097,-2.776433735137725,-1.6290322225041025,-0.09334981278459398,0.63949802777512
4.2722063037249285,0.5434785357790912,1.7185957889016463,1.7098634105250532,-0.14336136141121264,1.3957520855151122,0.8409352357329417,0.07017677812797896,0.25358094301378625,-2.7481419143041785,-1.609984200714907,-0.08825984920852337,0.6281560036310486
4.292263610315187,0.5708462888186768,1.7350940436016602,1.711249647705246,-0.1381649459626288,1.3411478766762477,0.808972259946326,0.06846485911857769,0.2660175464501318,-2.710740384428367,-1.5853740332875557,-0.08288400023902565,0.6152387799238891
4.312320916905445,0.5971300574815852,1.7509583390213683,1.7126027409764268,-0.13272248871945513,1.2873848255566858,0.7775583410032522,0.06686335633520102,0.27817975073478957,-2.663985541746623,-1.555053875588432,-0.07721741875200538,0.6007100348239764
4.332378223495702,0.6223485518250136,1.7662008081520044,1.713924957132762,-0.12703980239045934,1.2346524344501821,0.7468091571554925,0.06537813289944117,0.29003496222160763,-2.607633782495282,-1.5188758829839193,-0.07125525762336604,0.5845334465016458
4.35243553008596,0.6465243206727884,1.780835927118765,1.7152186812002732,-0.12112335882169802,1.1831450777257655,0.7168433435474908,0.06401514887537108,0.30154986082784097,-2.541441502910681,-1.476692210840407,-0.06499266972901752,0.5666726931272335
4.372492836676218,0.6696838490568692,1.7948805743186622,1.7164864183756892,-0.11498030352524842,1.1330620018277366,0.6877824922163616,0.06278046126954617,0.31269040003415144,-2.4651650992291505,-1.4283550145242752,-0.058424807944859936,0.5470914528710735
4.392550143266476,0.6918576556588533,1.808354089558376,1.717730795965294,-0.1086184702079409,1.0846073252756723,0.6597511520918959,0.06168022403100326,0.3234218068846073,-2.3785609676870276,-1.3737164494019127,-0.05154682514680253,0.5257534039035026
4.412607449856734,0.7130803902514837,1.8212783331921107,1.718954565323778,-0.1020463953000899,1.0379900386644192,0.6328768289965517,0.06072068805126052,0.333708581986684,-2.2813855045206446,-1.3126286708397013,-0.044353874210747435,0.5026222243948553
4.432664756446992,0.7333909311401521,1.8336777452594455,1.7201606037930868,-0.09527333248422676,0.9934240046641012,0.607289985645465,0.059908201164320385,0.3435144995112629,-2.1733951059663394,-1.2449438342040273,-0.036841108012601875,0.47766159251546747
4.45272206303725,0.7528324826044056,1.8455794046231888,1.72135191664127,-0.0883092672238308,0.9511279580201122,0.5831240416464394,0.05924920814666468,0.3528026071926328,-2.054346168260443,-1.1705140948612762,-0.029003679428270868,0.45083518643567433
4.472779369627507,0.7714526723394525,1.8570130881072322,1.7225316390013323,-0.08116493129206148,0.91132550555312,0.5605153734999525,0.058750250717257924,0.361535226328489,-1.9239950876392913,-1.0891916081778321,-0.020836741333659425,0.4221066843258112
4.492836676217765,0.7893036488976658,1.8680113296344039,1.7237030378100824,-0.07385181730049059,0.8742451261590682,0.5396033145991562,0.05841796753754758,0.36967395177993334,-1.782098260339219,-1.0008285295200792,-0.012335446604672562,0.39143976435621375
4.5128939828080235,0.806442179130092,1.8786094793643207,1.724869513746982,-0.06638219322783342,0.8401201708091702,0.5205301552298702,0.05825909421146114,0.3771796519714746,-1.6284120825965596,-0.9052770142544007,-0.0034949481172152908,0.35879810469721674
4.532951289398281,0.8229297456279528,1.888845762831244,1.7260346031729983,-0.05876911694868148,0.8091888625499154,0.5034411425705905,0.05828046328540937,0.384012468891028,-1.46269295064765,-0.8023892177471876,0.0056896012528060425,0.32414538351915634
4.553008595988539,0.8388326441641539,1.8987613400819312,1.727201980069449,-0.05102645076223339,0.7816942965030651,0.4884844806924846,0.05848900424828496,0.3901318180899157,-1.2846972607288198,-0.6920172953648178,0.015223048629487757,0.2874452789923675
4.573065902578797,0.8542220811347878,1.9084003648134895,1.7283754579768553,-0.04316887592102773,0.7578844398656545,0.475811330559391,0.05889174353146098,0.3954963886828665,-1.09418140907641,-0.5740134024736823,0.025110241136919953,0.24866146928718602
4.593123209169055,0.8691742710006408,1.9178100435112293,1.7295589919337921,-0.035211907159674136,0.7380121319099914,0.46557581002782045,0.05949580450879377,0.4000641433480159,-0.8909017919267518,-0.44822969444016314,0.035356025899203836,0.2077576325739473
4.613180515759312,0.8837705337286988,1.927040694586519,1.7307566804157342,-0.027171907223585458,0.7223350839836574,0.45793499384695713,0.060308407496621086,0.4037923183269061,-0.6746148055161761,-0.3145183266306413,0.045965250040432615,0.1646974470229854
4.633237822349571,0.898097392233651,1.9361458075146372,1.7319727672739094,-0.019066101397709936,0.7111158795095084,0.45304891365865896,0.0613368697537644,0.40663742342448594,-0.4450768460810244,-0.1727314544115064,0.05694276068469861,0.11944459080463776
4.6532951289398286,0.9122466698193973,1.9451821019726252,1.733211643674146,-0.010912592035262361,0.704621973985672,0.4510805579974515,0.06258860548152323,0.4085552420091112,-0.20204430985762567,-0.022721233149145093,0.06829340495609326,0.07196274208923858
4.673352435530086,0.9263155876205522,1.954209586977143,1.7344778500357236,-0.002730373086456753,0.7031256949855493,0.4521958722905378,0.06407112582368255,0.409500831012544,0.05472640691768271,0.13566018179006356,0.08002202997872221,0.022215579047123457
4.693409742120344,0.9404028756186047,1.9632888172805723,1.7357750155021097,0.005460940651610703,0.7060027728926443,0.4559305332029836,0.06555339363326518,0.40949366861610703,0.18890063479998573,0.2067936242481352,0.05645952992226448,-0.019773018586695966
4.713467048710602,0.9545650981542875,1.9724503564701144,1.7370946986982247,0.013644430280191452,0.7104353868680346,0.4603002707587655,0.06628277916192682,0.4087351254329152,0.2536738020241899,0.22985978707598093,0.01681490505999982,-0.05582404711232854
4.73352435530086,0.9688286541281413,1.9817037761661915,1.7384211744528066,0.021805641354646667,0.7161225084459284,0.4651122430269856,0.06623930912421128,0.407270919675493,0.3143644900958709,0.2510237010481544,-0.02083182652028929,-0.09034313405613226
4.7535816618911175,0.9832178224344038,1.991057543255503,1.7397393829132608,0.02993076546858953,0.7229832737460067,0.4703288013638992,0.0654625933974623,0.4051314586926922,0.3710512692882256,0.270324999501554,-0.05651546364847973,-0.12335342769658257
4.773638968481376,0.9977552804037618,2.000519379578543,1.7410350494647777,0.0380065977329546,0.7309383902934161,0.4759130897925009,0.0639915458824208,0.40234668686779557,0.4238127098744447,0.28780331577307977,-0.09027080515445905,-0.1548780763121545
4.793696275071634,1.012462135231458,2.0100962777829308,1.7422946708107914,0.04602052751668635,0.7399101370187647,0.48182904500252316,0.061864384503233345,0.3989460856185155,0.4727273821277249,0.3034982831996408,-0.12213264986808992,-0.1849402281813228
4.813753581661891,1.0273579554054042,2.019794517176748,1.7435055010534577,0.053960529187427865,0.7498223642581261,0.48804139635043214,0.05911863120744634,0.3949586733969957,0.5178738563212535,0.3174495351181265,-0.15213579661925986,-0.21356303158256326
4.83381088825215,1.042460802134285,2.0296196795818733,1.7446555377741129,0.061815152852209315,0.7606004937530374,0.49451566585943896,0.0557911119660127,0.39041300568980947,0.5593307027282269,0.32969670486544234,-0.18031504423784042,-0.24076963479435012
4.853868194842407,1.057787260775674,2.039576665187317,1.7457335081137508,0.06957351509813675,0.7721715186504993,0.5012181682194884,0.05191795677328474,0.3853371750179617,0.5971764916218345,0.34027942577848325,-0.20670519155371564,-0.26658318609515974
4.873925501432665,1.0733524722641363,2.049669708402555,1.7467288548534818,0.07722528973308049,0.7844640035029757,0.5081160107872623,0.04753459964701732,0.37975881093688674,0.6314897932752691,0.3492373311941491,-0.23134103739675793,-0.29102683376346683
4.893982808022923,1.089170164539344,2.0599023937108667,1.7476317224950102,0.08476069852636405,0.7974080842683963,0.515177093586184,0.04267577862836778,0.37370508003645014,0.6623491779617269,0.35661005444934735,-0.25425738059684677,-0.31412372607774575
4.914040114613181,1.1052526839741796,2.0702776715226636,1.7484329433410934,0.09217050194945237,0.8109354683101527,0.5223701093064123,0.03737553578189755,0.36720268594094757,0.6898332159543985,0.36243722888097185,-0.2754890199838556,-0.3358970113164725
4.934097421203439,1.1216110268028494,2.0807978740288293,1.7491240235760153,0.09944598991664061,0.8249794343971006,0.5296645433048439,0.03166721719556791,0.36027786930910527,0.7140204775264776,0.3667584878259263,-0.2950707543876648,-0.3563698377581215
4.954154727793696,1.1382548705489919,2.0914647310540544,1.7496971293460544,0.10657897252574293,0.8394748327035618,0.5370306736051177,0.02558347298074643,0.35295640783408044,0.7349895329511549,0.3696134646211088,-0.3130373826381522,-0.37556535368116845
4.974212034383955,1.155192605453785,2.1022793859101663,1.7501450728399484,0.11356177079878077,0.8543580848093184,0.5444395708976033,0.019156257272199197,0.34526361624345975,0.752818952501623,0.3710417926034163,-0.32942370356519723,-0.39350670736408827
4.9942693409742125,1.1724313659040597,2.113242411249472,1.7504612983693666,0.12038720742267177,0.8695671836996194,0.5518630985394137,0.012416828228096151,0.3372243462992615,0.7675873064510763,0.3710831051097533,-0.34426451599867325,-0.41021704708535595
5.01432664756447,1.1899770618604029,2.124353824918082,1.7506398684493734,0.12704859748991798,0.885041693765175,0.5592739125543985,0.005395748030010146,0.3288629867979337,0.7793731650727058,0.3697770354770151,-0.3575946187684582,-0.4257195211234471
5.034383954154729,1.207834410285274,2.1356131058092576,1.750675449878902,0.13353973923929502,0.9007227508021627,0.5666454616331463,-0.0018771171170831324,0.32020346357035534,0.7882550986397066,0.36716321704210875,-0.3694488107044296,-0.44003727775683615
5.054441260744986,1.2260069665711084,2.1470192097167344,1.7505632998212148,0.13985490479654025,0.9165530620122202,0.5739519871329815,-0.009372596984806768,0.3112692394818356,0.7943116774252679,0.36328128314192665,-0.3798618906364693,-0.45319346526399884
5.074498567335244,1.244497155968429,2.1585705851880626,1.7502992518843783,0.14598883091504147,0.9324769060024508,0.5811685230779671,-0.017062217321381676,0.30208331443211406,0.7976214717025837,0.3581708671133723,-0.3888686573944485,-0.46521123192340996
5.0945558739255015,1.263306305013956,2.170265189377944,1.7498797022017298,0.1519367097165256,0.9484401327854225,0.588270896158906,-0.024918199851623794,0.2926682253553614,0.7982630517448475,0.3518716022933447,-0.39650390980824807,-0.47611372601354485
5.11461318051576,1.2824346729587155,2.1821005039015597,1.7493015955123408,0.15769417943174732,0.964390163779165,0.5952357257333368,-0.032913462276949176,0.2830460462201781,0.7963149878252511,0.34442312201874414,-0.4028024467077449,-0.48592409581287843
5.134670487106018,1.301881483196149,2.1940735506879134,1.7485624112414926,0.16325731514117772,0.980275991807174,0.6020404238255377,-0.04102161827537003,0.27323838802959555,0.7918558502169878,0.33586505962647173,-0.4077990669228152,-0.49466548959988604
5.154727793696275,1.3216449546902216,2.206180907833158,1.7476601495811361,0.16862261951569252,0.9960481810984074,0.6086631951265236,-0.04921697750149741,0.26326639882107533,0.7849642091932496,0.32623704845342594,-0.41152856928333603,-0.5023610556530425
5.174785100286534,1.341722333403534,2.218418725453936,1.746593317570368,0.17378701355726142,1.011658867287288,0.6150830369940483,-0.05747454558653892,0.25315076366651,0.7757186350272292,0.3155787218365076,-0.41402575261918784,-0.5090339422508232
5.194842406876791,1.3621099237254284,2.2307827415407124,1.7453609151758922,0.17874782733963593,1.0270617574137022,0.6212797394526042,-0.0657700241382993,0.2429117046722223,0.7641976979921206,0.3039297131126162,-0.4153254157602452,-0.5147072976717035
5.214899713467049,1.3828031199000992,2.2432682978111065,1.74396242137249,0.1835027907490382,1.0422121299229996,0.6272338851934189,-0.07407981074118217,0.23256898097896514,0.7504799683611132,0.29132965561864976,-0.41546235753638805,-0.519404270194158
5.234957020057307,1.4037964374547038,2.255870355563234,1.7423977802234913,0.1880500242248502,1.0570668346659942,0.6329268495744615,-0.08238099895618767,0.2221418887619226,0.7346440164074022,0.2778181826915107,-0.41447137677749024,-0.5231480080966621
5.255014326647565,1.4250835446274701,2.2685835115290356,1.740667386961239,0.19238802950030165,1.0715842928989647,0.6383408006204372,-0.09065137832091383,0.21164926123070896,0.7167684124041811,0.26343492766810006,-0.4123872723134302,-0.5259616596576907
5.275071633237823,1.4466572937958058,2.2814020137276128,1.7387720740675578,0.1965156803431589,1.0857244972836528,0.6434586990227903,-0.09886943434955595,0.20110946862936888,0.6969317266246402,0.248219523885314,-0.40924484297408836,-0.5278683731557196
5.29512893982808,1.4685097529044064,2.294319777318562,1.7367130973542202,0.20043221329641314,1.099449011887262,0.6482642981396997,-0.10701434853290753,0.19054041823637746,0.6752125293419722,0.23221160468005553,-0.4050788875893391,-0.5288912968692229
5.315186246418339,1.4906322368933707,2.3073304004553146,1.7344921220434217,0.20413721841897,1.1127209721824647,0.6527421439960878,-0.11506599833835898,0.17995955436464073,0.6516893908293713,0.2154508033892233,-0.39992420498906056,-0.5290535790766766
5.335243553008596,1.513015339126302,2.3204271801384655,1.732111208848241,0.2076306300263372,1.1255050850473922,0.6568775752836113,-0.12300495720989849,0.1693838583614948,0.6264408813600293,0.1979767533497172,-0.39381559400313004,-0.5283783680565554
5.355300859598854,1.5356489628184198,2.333603128069108,1.7295728000531096,0.2109127174313133,1.1377676287656415,0.6606567233606649,-0.13081249456811178,0.1588298486087063,0.5995455712071383,0.17982908789843677,-0.3867878534614261,-0.5268888120873345
5.3753581661891126,1.5585223524646736,2.3468509865021736,1.7268797055942846,0.21398407568467684,1.1494764530262744,0.6640665122523823,-0.13847057581018254,0.14831358052247257,0.5710820306438917,0.1610474403722828,-0.3788757821938238,-0.524608059447489
5.39541547277937,1.5816241252678482,2.3601632440997644,1.7240350891403131,0.21684561631587454,1.1606009789238156,0.6670946586506363,-0.1459618623098909,0.1378506465534215,0.5411288299434831,0.14167144410815613,-0.37011417903020283,-0.5215592584154944
5.415472779369628,1.604942302566671,2.373532151784486,1.7210424541724982,0.21949855807370985,1.1711121989582538,0.6697296719140349,-0.15326971141761597,0.12745617618661115,0.5097645393791022,0.1217407324429538,-0.3605378428004401,-0.5177655572698256
5.435530085959885,1.628464341263925,2.3869497385927803,1.71790563006537,0.22194441766703166,1.1809826770350407,0.6719608540679263,-0.16037817646033337,0.11714483594153019,0.4770677292239436,0.10129493871357775,-0.35018157233441216,-0.5132501042889573
5.455587392550144,1.6521771652545585,2.4004078275282703,1.7146287581671555,0.22418500050542314,1.1901865484650935,0.673778299804396,-0.16727200674161635,0.10693082937209811,0.4431169697512014,0.08037369625692836,-0.33908016646199624,-0.508036047751365
5.4756446991404015,1.676067196853791,2.413898051415084,1.7112162778802424,0.22622239143989006,1.1986995199647925,0.675172896482268,-0.17393664754163607,0.09682789706666449,0.4079908312340661,0.05901663840990601,-0.3272684240130701,-0.502146535935524
5.495702005730659,1.7001203882252245,2.4274118687511916,1.7076729127416483,0.22805894550354938,1.2064988696559809,0.676136324127102,-0.18035824011716162,0.08684931664800939,0.37176788394572946,0.03726339850940752,-0.31478114381751143,-0.49560471711990894
5.515759312320918,1.7243222528089526,2.4409405795617465,1.7040036565034908,0.22969727865231807,1.2135634470659675,0.6766610554312,-0.18652362170155784,0.0770079027733438,0.33452669815938574,0.015153609892334163,-0.3016531247051988,-0.4884337395829956
5.535816618911175,1.7486578967496713,2.454475341252413,1.7002137592134552,0.23114025850560185,1.2198736731275241,0.6767403557535978,-0.19242032550478982,0.06731600713430885,0.29634584414822807,-0.007273094104412348,-0.2879191655060074,-0.4806567516032588
5.555873925501433,1.7731120503247844,2.468007184462704,1.6963087132952592,0.2323909950869831,1.225411540178886,0.6763682831200715,-0.19803658071341818,0.057785518456976166,0.25730389218544714,-0.029977080143934742,-0.2736140650498158,-0.4722969014591737
5.575931232091691,1.7976690993725144,2.481527028919311,1.6922942396291232,0.23345283156491012,1.2301606119637525,0.6755396882231346,-0.20336131249060135,0.04842786250184808,0.21747941254423786,-0.05291871488932909,-0.2587726221665003,-0.46337733742921483
5.595988538681949,1.8223131167200157,2.4950256992894513,1.6881762736322405,0.2343293349933857,1.2341060236312866,0.6742502144220384,-0.2083841419760964,0.039254002063857214,0.17695097549779115,-0.07605836500370033,-0.24342963568594023,-0.4539212077918581
5.616045845272207,1.8470278936114797,2.5084939410341907,1.683960951339244,0.23502428705265566,1.2372344817361172,0.6724962977427732,-0.21309538628625624,0.030274436972367043,0.13579715131930037,-0.09935639715014455,-0.22761990443801117,-0.4439516608255788
5.636103151862464,1.871796971136241,2.5219224362617774,1.6796545954826683,0.2355416747898969,1.2395342642383336,0.6702751668780653,-0.21748605851403302,0.021499204091170863,0.09409651028195665,-0.1227731779917649,-0.2113782272525917,-0.43349184480885117
5.656160458452723,1.896603671656896,2.5353018195809893,1.6752637015734286,0.23588568135990706,1.2409952205034904,0.6675848431873805,-0.2215478677289755,0.012937877318493107,0.05192762265895645,-0.1462690741916597,-0.19473940295955838,-0.422564908020151
5.67621776504298,1.9214311302374047,2.5486226939544587,1.670794923981282,0.23606067676579237,1.2416087713026083,0.6644241406969231,-0.22527321897723052,0.004599567586988505,0.009369058723487367,-0.1698044524129303,-0.17773823038879022,-0.41119399873795354
5.696275071633238,1.946262326071202,2.5618756465520067,1.666255062015295,0.23607120859965636,1.2413679088121685,0.6607926660996339,-0.22865521328154148,-0.0035070771362578565,-0.033500611251254586,-0.19333967931867413,-0.160409508370162,-0.3994022652407332
5.7163323782234965,1.9710801139093055,2.575051264603981,1.6616510460043128,0.23592199278328846,1.2402671966141179,0.6566908187551923,-0.23168764764125038,-0.011373871849730224,-0.07660281699207738,-0.21683512157199436,-0.1427880357335527,-0.38721285580696563
5.736389684813754,1.995867255488429,2.5881401512545925,1.6569899233774301,0.23561790430885307,1.238302769695866,0.6521197906900165,-0.23436501503229612,-0.018993094517482385,-0.11985898822578811,-0.2402511458359875,-0.12490861130883868,-0.3746489187151255
5.756446991404012,2.020606450959089,2.6011329414152495,1.652278844744457,0.23516396797957775,1.235472334450288,0.6470815665972611,-0.23668250440721572,-0.02635748606913764,-0.16319055467919563,-0.2635481187737585,-0.1068060339258996,-0.36173360224368883
5.77650429799427,2.0452803703137117,2.614020317617884,1.6475250499763836,0.2345653491504416,1.2317751686757221,0.6415789238368207,-0.2386360006951428,-0.033460250399888716,-0.20651894607910615,-0.286686407048403,-0.08851510241461047,-0.34849005467113003
5.796561604584528,2.0698716848147467,2.626793025868299,1.6427358542858541,0.23382734446886436,1.2272121215759684,0.6356154324353251,-0.24022208480181018,-0.04029505437049814,-0.24976559215232674,-0.3096263773230232,-0.07007061560485028,-0.3349414242759244
5.8166189111747855,2.0943630984227752,2.639441891499497,1.6379186343076324,0.23295537261539498,1.2217856137602947,0.6291954550861459,-0.2414380336095464,-0.04685602780729764,-0.2928519226256663,-0.33232839626071886,-0.051507372326495604,-0.32111085933654726
5.836676217765043,2.1187373792246165,2.6519578350250135,1.6330808141790683,0.2319549650443999,1.2154996372434297,0.6223241471493892,-0.2422818199772785,-0.05313776350218849,-0.33569936722593097,-0.3547528305245917,-0.032860171409424765,-0.3070215081314737
5.856733524355302,2.142977390861437,2.6643318879922524,1.6282298516205662,0.23083175672475167,1.2083597554455667,0.615007456651901,-0.24275211274053077,-0.05913531721264151,-0.3782293556799279,-0.37686004677773743,-0.01416381168351255,-0.29269651893917814
5.876790830945559,2.167066123956867,2.676555208835826,1.6233732240160572,0.2295914768805181,1.2003731031923626,0.6072521242872639,-0.24284827671142606,-0.064844207661697,-0.42036331771446545,-0.3986104116832605,0.004546908021360041,-0.27815904003813674
5.896848137535817,2.1909867275451016,2.6886190987308822,1.6185184144934617,0.22823993973165033,1.191548386714939,0.5990656834158008,-0.24257037267868264,-0.07026041653796489,-0.46202268305634897,-0.4199642919042579,0.023237188875318893,-0.26343221970682373
5.916905444126075,2.214722540499012,2.7005150174464445,1.6136728980051604,0.22678303523467153,1.1818958836498812,0.5904564600645703,-0.2419191574076185,-0.07538038849562444,-0.5031288814323887,-0.4408820541038323,0.04187223204848434,-0.24853920622371514
5.936962750716333,2.2382571229582573,2.7122345991987435,1.6088441274084615,0.22522671982336573,1.1714274430392377,0.5814335729273701,-0.2408960836401478,-0.0802010311544245,-0.5436033425693916,-0.46132406494508116,0.06041723871098048,-0.2335031478672852
5.957020057306591,2.2615742877573917,2.7237696685045543,1.6040395195460688,0.22357700714946613,1.160156485330521,0.5720069333647355,-0.23950330009478293,-0.0847197150996834,-0.5833674961941631,-0.4812506910911081,0.07883741003292766,-0.21834719291601
5.977077363896848,2.284658131853975,2.73511225603453,1.5992664413265505,0.221839958823344,1.1480980023767078,0.56218724540394,-0.23774365146663357,-0.08893427388228893,-0.622342772033512,-0.5006222992050096,0.09709794718445086,-0.2030944896483639
5.997134670487107,2.3074930677566803,2.7462546144665354,1.5945321958048058,0.22002167515469723,1.1352685574362382,0.5519860057389956,-0.23562067842740697,-0.09284300401869845,-0.6604505998142449,-0.5193992559498883,0.11516405133567176,-0.18776818634282227
6.017191977077364,2.3300638549534045,2.757189234338985,1.5898440082625345,0.21812828589323852,1.1216862851730172,0.5414155037306514,-0.233138617625408,-0.09644466499093891,-0.6976124092631695,-0.5375419279888431,0.1330009236567129,-0.1723914312778602
6.037249283667622,2.352355631339376,2.7679088599041735,1.5852090122887033,0.21616594096938477,1.1073708916564124,0.5304888214063952,-0.23030240168553884,-0.09973847924660642,-0.7337496301070923,-0.5550106819849709,0.15057376531769773,-0.1569873727319529
6.05730659025788,2.374353944645268,2.778406504981614,1.5806342358600167,0.214140801234945,1.0923436543612555,0.5192198334604514,-0.22711765920929983,-0.10272413219886699,-0.768783692072823,-0.5717658846013793,0.16784777748874657,-0.1415791589835758
6.077363896848138,2.3960447838653023,2.7886754688113715,1.5761265874213817,0.21205902920380923,1.0766274221678427,0.5076232072537841,-0.22359071477478798,-0.10540177222645603,-0.8026360248871667,-0.5877679025011604,0.18478816133998555,-0.12618993831120306
6.097421203438396,2.4174146106853627,2.7987093519073967,1.5716928419663772,0.20992677979263719,1.0602466153619337,0.4957144028140954,-0.21972858893669844,-0.10777201067367825,-0.8352280582769303,-0.6029771023474186,0.20136011804153453,-0.11084285899331088
6.117478510028654,2.4384503909111026,2.808502071910863,1.5673396271177238,0.20775019106154674,1.0432272256347512,0.48350967283582413,-0.2155389982263236,-0.10983592185040811,-0.8664812219689262,-0.6173538508032568,0.21752884876351608,-0.09556106930837398
6.137535816618912,2.4591396258960536,2.8180478794434984,1.5630734092077487,0.2055353749548025,1.025596816082984,0.4710260626801481,-0.21103035515155422,-0.11159504303208934,-0.8963169456899553,-0.6308585145317687,0.23325955467605508,-0.08036771753486723
6.157593123209169,2.479470383969738,2.827341373960924,1.5589004793588563,0.20328840804150472,1.007384521208781,0.45828141037498193,-0.2062117681968776,-0.11305137445973541,-0.9246566591668284,-0.643451460196057,0.24851743694927164,-0.0652859519512661
6.177650429799427,2.499431331865771,2.8363775196059837,1.554826939563994,0.20101532225627747,0.98862104691976,0.44529434661498035,-0.2010930418233785,-0.11420737933992912,-0.9514217921263524,-0.6550930544592235,0.26326769675328965,-0.050338920836045686
6.1977077363896855,2.5190117661499802,2.845151661062084,1.5508586887671234,0.19872209563995755,0.9693386705289981,0.432084294761534,-0.19568467646873988,-0.11506598384482288,-0.9765337742953346,-0.6657436639843668,0.27747553525823154,-0.03554977246768121
6.217765042979943,2.538201644648507,2.853659539406528,1.547001408943685,0.19641464308028306,0.9495712407550387,0.4186714708427717,-0.18999786854724232,-0.11563057711213857,-0.9999140354005813,-0.6753636554345852,0.29110615363422,-0.020941655124647282
6.237822349570201,2.556991617875919,2.8618973079638437,1.5432605511810686,0.19409880705258195,0.929354177721889,0.4050768835535634,-0.18404451044976367,-0.11590501124516751,-1.0214840051689014,-0.6839133954729815,0.30412475305137754,-0.006537717085419531
6.257879656160459,2.575373060463316,2.8698615481591294,1.5396413217590796,0.1917803483604605,0.9087244729590183,0.39132233425551144,-0.17783719054377878,-0.11589360131277052,-1.0411651133271018,-0.6913532507626545,0.3164965346798265,0.007638893371527081
6.277936962750717,2.5933381025864453,2.877549285371379,1.5361486682304086,0.1894649368764924,0.8877206894013607,0.3774304169769618,-0.17138919317336132,-0.11560112534937808,-1.0588787896019887,-0.6976435879667044,0.3281866996896903,0.02156502796771731
6.2979942693409745,2.610879661393806,2.8849580047868235,1.5327872655010986,0.18715814228290673,0.8663829613893164,0.3634245184129945,-0.16471449865918109,-0.11503282435499008,-1.074546463720371,-0.7027447737482315,0.339160449251091,0.03521753842467641
6.318051575931233,2.6279914724347595,2.8920856672522604,1.529561501911013,0.18486542481227697,0.8447529946687449,0.349328817925429,-0.1578277832985071,-0.11419440229517581,-1.0880895654090572,-0.7066171747703369,0.3493829845341502,0.048573276463928616
6.338108882521491,2.6446681210876397,2.898930725128392,1.526475465314304,0.1825921259882096,0.8228740663909742,0.3351682875428237,-0.15074441936520366,-0.11309202610107419,-1.0994295243948518,-0.7092211576961184,0.35881950670899254,0.061609093806999415
6.358166189111748,2.6609050739878604,2.9054921381431598,1.523532929159881,0.18034345936603255,0.8007910251127925,0.32096869196047306,-0.1434804751097345,-0.11173232566939359,-1.1084877704045637,-0.7105170891886782,0.3674352169457379,0.07430184217541302
6.378223495702006,2.6766987104560283,2.9117693892450776,1.520737338571877,0.1781245012734839,0.778550290796455,0.30675658854041155,-0.1360527147591608,-0.11012239386241193,-1.1151857331649992,-0.7104653359111144,0.37519531641451276,0.08662837329069505
6.398280802292264,2.692046353926047,2.9177625004565675,1.5180917964301188,0.1759401815514004,0.7561998548096767,0.2925593273114093,-0.12847859851714039,-0.10826978650797653,-1.119444842402967,-0.7090262645265295,0.38206500628543605,0.09856553887437
6.418338108882522,2.7069463033732317,2.9234720487272963,1.5155990494505942,0.1737952742944064,0.7337892799256407,0.27840505096897683,-0.12077628256392892,-0.10618252239950446,-1.1211865278452755,-0.7061602416980215,0.388009487728632,0.11009019064796252
6.43839541547278,2.7213978647424133,2.928899181787504,1.513261474265919,0.1716943885916019,0.7113697003229924,0.26432269487536075,-0.11296461905637911,-0.10386908329598185,-1.1203322192187295,-0.7018276340886913,0.3929939619142234,0.12117918033299793
6.458452722063038,2.735401382376053,2.9340456340013477,1.5110810635058067,0.16964195926725173,0.6889938215858398,0.2503419870595476,-0.10506315612794315,-0.10133841392196485,-1.116803346250136,-0.6959888083616376,0.3969836300123326,0.13180935965100074
6.478510028653296,2.7489582704423454,2.938913742220228,1.5090594118775351,0.16764223762147373,0.6667159207037558,0.23649344821726004,-0.09709213788866844,-0.09859992196757869,-1.110521338666305,-0.6886041311799624,0.39994369319308154,0.14195758032349612
6.498567335243553,2.762071044363335,2.9435064616361295,1.5071977022464158,0.16569928217092772,0.6445918460717781,0.22280839171096023,-0.08907250442520187,-0.0956634780885183,-1.1014076261940438,-0.6796339692067672,0.4018393526265936,0.15160069407200855
6.518624641833811,2.7747433522430187,2.9478273816349523,1.5054966917162613,0.16381694938950375,0.6226790174904062,0.2093189235698465,-0.08102589180078623,-0.09253941590604822,-1.0893836385601579,-0.6690386891051489,0.40263580948299105,0.16071555261806317
6.5386819484240695,2.78698000629546,2.951880741649849,1.5039566977098533,0.16199888444901095,0.6010364261656043,0.19605794248985697,-0.07297463205526245,-0.08923853200700216,-1.0743708054914543,-0.6567786575382062,0.40229826493239773,0.16927900768318516
6.558739255014327,2.798787014272895,2.955671447014557,1.5025775840494102,0.1602485119598661,0.5797246347088025,0.1830591398336674,-0.06494175320507001,-0.08577208594378369,-1.0562905567147416,-0.6428142411690432,0.4007919201449347,0.1772679109888987
6.578796561604585,2.810171610893843,2.9592050848167357,1.5013587470370564,0.15856902671178225,0.5588057771368908,0.17035699963068973,-0.05695097924324366,-0.08215180023436555,-1.0350643219568287,-0.6271058066607591,0.3980819762907234,0.1846591142567291
6.598853868194843,2.821142289271217,2.9624879397512984,1.5002991015352887,0.15696338441445717,0.5383435588722261,0.15798679857707754,-0.049026730139418495,-0.0783898603622904,-1.0106135309445197,-0.6096137206764523,0.3941336345398899,0.1914294692082012
6.618911174785101,2.831708832340431,2.9655270099737514,1.4993970670474464,0.15543429243826223,0.5184032567426282,0.14598460603571795,-0.04119412183982507,-0.07449891477666991,-0.9828596134046244,-0.590298349879224,0.38891209606255384,0.1975558275648398
6.638968481375358,2.8418823442875096,2.968330022953525,1.4986505537981767,0.15398420055493078,0.49905171898138034,0.134387284036241,-0.033478966267292964,-0.0704920748921857,-0.9517239990639481,-0.5691200609321729,0.3823825620288397,0.20301504104816978
6.659025787965617,2.851675281977198,2.970905451327308,1.4980569488139062,0.15261529167824683,0.48035736522723016,0.1232324872750099,-0.025907771321246997,-0.06638291508908854,-0.9171281176493005,-0.5460392204984021,0.37451023360886926,0.20778396137971594
6.679083094555875,2.8611014863810724,2.973262528752386,1.4976131020033048,0.1513294726047338,0.46239018652439023,0.11255866311512897,-0.018507740877712342,-0.06218547271319892,-0.8789933988874894,-0.5210161952410104,0.36526031197276443,0.2118394402810032
6.699140401146132,2.8701762140056455,2.975411265759973,1.497315312237758,0.15012836475434288,0.44522174532253445,0.10240505158644053,-0.011306774789310525,-0.057914248075906824,-0.8372412725053175,-0.49401135182309375,0.3545979982906502,0.21515832947355665
6.71919770773639,2.87891616832048,2.9773624656085476,1.4971593134318317,0.1490132949111418,0.42892517547680176,0.09281168538552187,-0.004333468885259428,-0.05358420445417157,-0.7917931682295989,-0.4649850569077607,0.34248849373264556,0.21771748067890076
6.739255014326648,2.887339531186295,2.9791277401371867,1.4971402606237416,0.1479852859640034,0.4135751822477962,0.08381938987569226,0.0023828850286236047,-0.049210768090522175,-0.742570515787135,-0.4338976771581029,0.32889699946887596,0.2194937456185606
6.759312320916906,2.8954659942830756,2.980719525618901,1.4972527160558209,0.14704504764729429,0.3992480423015832,0.07546978308700658,0.008812299169924431,-0.04480982819305704,-0.6894947449047351,-0.4007095792372253,0.31378871666946306,0.22046397601406115
6.7793696275071635,2.9033167905381854,2.982151098613971,1.4974906352549895,0.1461929672815634,0.3860216037096946,0.06780527571625794,0.014924089779631555,-0.0403977369354442,-0.6324872853092094,-0.36538112980822657,0.29712884650452986,0.22060502358692713
6.799426934097422,2.9109147255544707,2.98343659182328,1.49784735311322,0.14542910051423052,0.3739752859491243,0.06086907112697837,0.020686877122136127,-0.03599130945692086,-0.5714695667273597,-0.3278726955342055,0.27888259014419825,0.21989374005868345
6.81948424068768,2.9182842090383736,2.984591009941647,1.4983155699680069,0.14475316206027516,0.3631900799023309,0.05470516534943637,0.026068585485231055,-0.03160782386229423,-0.5063630188860007,-0.28814464307826526,0.25901514875859233,0.21830697715085495
6.839541547277937,2.92545128622804,2.9856302455111674,1.4988873376828356,0.14416451644292488,0.35374854785723553,0.04935834708063935,0.031036443180111783,-0.027265021221940675,-0.43708907151193177,-0.2461573391035019,0.23749172351783399,0.21582158658496675
6.859598853868196,2.932443669321429,2.9865710947745407,1.4995540457276486,0.143662168734344,0.34573482350722684,0.044874197684334094,0.03555698254137751,-0.02298110557180598,-0.3635691543319677,-0.20187115027302038,0.214277515592042,0.2124144200825433
6.879656160458453,2.9392907689044203,2.987431273528412,1.5003064072593146,0.1432447552963223,0.3392346119511518,0.0412990911910025,0.039596039927027094,-0.018774743913405847,-0.28572469707291237,-0.1552464432499212,0.18933772615134492,0.2080623293651096
6.899713467048711,2.9460237253789283,2.9882294329767007,1.5011344452020965,0.14291053452096356,0.33433518969332576,0.03868019429786784,0.04311875571846557,-0.014665066213825018,-0.20347712946156982,-0.10624358469729334,0.16263755636586286,0.20274216615419072
6.919770773638969,2.9526754403910056,2.9889851755839394,1.5020274783281187,0.1426573775713741,0.331125404643526,0.03706546636888741,0.04608957432049754,-0.010671665405718123,-0.11674788122474933,-0.05482294127824616,0.13414220740571992,0.1964307821713117
6.939828080229227,2.9592806082589562,2.989719070928607,1.5029741073378364,0.14248275912235145,0.32969567611699313,0.03650365943475986,0.04847224416133061,-0.0068145973873089336,-0.02545838208926643,-0.0009448796558828576,0.10381688044103399,0.1891050291379966
6.959885386819485,2.9658757474014434,2.9904526715564637,1.5039622009405027,0.14238374810107302,0.3301379948344345,0.03704431819292053,0.05022981769257623,-0.0031143810223910953,0.070469938218082,0.055430233506703175,0.07162677664193318,0.18074175877577114
6.979942693409742,2.9724992317655996,2.9912085288338854,1.504978881934637,0.14235699842778465,0.3325459229220171,0.038737780007542855,0.051324651389246106,0.0004080018596725084,0.17111564997048667,0.11434203154641054,0.037537097178536705,0.17131782280615965
7.0,2.9791913222551347,2.9920102088012,1.5060105132884931,0.14239873975648923,0.3370145939113736,0.041635174909536166,0.0517184057497557,0.0037311064639493543,0.2765573234411356,0.17583014780013784,0.0015130432209700118,0.1608100729506874
