time,pos_x,pos_y,pos_z,yaw,vel_x,vel_y,vel_z,vel_yaw,acc_x,acc_y,acc_z,acc_yaw
0.0,-2.0000000000000018,-2.0000000000000018,1.500000000000001,-2.527508566378537e-17,0.0,0.0,0.0,0.0,0.0,0.0,0.0,0.0
0.020072992700729927,-1.9999929278169741,-1.9999806988727218,1.5000074684062086,1.5013603120179316e-06,0.0010564902587684153,0.00287954676323922,0.0011138215480509747,0.00022416752262873128,0.10478315999161514,0.2848370297165699,0.11009721533254106,0.022209866598539955
0.040145985401459854,-1.9999441139699161,-1.9998480796437108,1.5000587216477772,1.1845709301829176e-05,0.004157006406097124,0.011270139157232037,0.004353078459223341,0.0008802030716120028,0.20441832094785234,0.5511727547182703,0.21257290755350827,0.04319099434764163
0.06021897810218978,-1.9998137012480297,-1.9994955943846422,1.5001947558758466,3.9426336411486794e-05,0.009199532386786311,0.02480584258625563,0.009567102545772761,0.0019437833726923392,0.2989998754196385,0.7994163248627925,0.3076033041116583,0.06296853352043469
0.08029197080291971,-1.9995638538831058,-1.9988239320291277,1.5004535891232857,9.215509565254563e-05,0.0160839399966591,0.04312890545174702,0.016608750168928897,0.0033910881570748635,0.3886222159579078,1.0299768900078203,0.395364632455723,0.08156763439004876
0.10036496350364964,-1.999158719792512,-1.9977408547127824,1.5008703317956826,0.000177472465715289,0.024711988882551356,0.0658897591522893,0.02533440223889896,0.005198800161427294,0.47337973511358006,1.2432636000110273,0.47603312003445725,0.09901344722961364
0.12043795620437955,-1.9985643928221675,-1.9961610341132754,1.5014772571623158,0.00030235761007798054,0.034987326542324095,0.09274701808362676,0.03560396421486326,0.007344105127879945,0.5533668254375822,1.439685604730101,0.5497849942966071,0.11533112231225891
0.14051094890510948,-1.997748874989523,-1.9940058877903895,1.502303871847138,0.000473338437116116,0.04681548832485152,0.12336747963865198,0.04728086610497701,0.009804691804025718,0.6286778794808431,1.6196520540227164,0.6167964826909202,0.13054580991111425
0.16058394160583941,-1.996682038726545,-1.9912034155260812,1.5033769863197568,0.000696501660211675,0.06010389743002544,0.1574261242074098,0.060232062466373186,0.012558751942920113,0.6994072897942895,1.783572097746558,0.6772438126661429,0.14468266029930935
0.18065693430656934,-1.995335589122688,-1.9876880356645314,1.5047207853864095,0.0009775028578623735,0.07476186490876285,0.1946061151771063,0.07432803240515429,0.015584980303081222,0.7656494489288432,1.9318548857593092,0.7313032116710207,0.15776682374997392
0.20072992700729927,-1.9936830261678795,-1.983400421452205,1.506356898680946,0.0013215765337909143,0.09070058966299299,0.23459879893209315,0.08944277957640333,0.018862574648489727,0.8274987494354382,2.064909567918651,0.7791509071542984,0.1698234505362375
0.2208029197080292,-1.9916996069955009,-1.9782873373779126,1.5083044711558091,0.0017335461770542418,0.10783315844566699,0.27710370485388097,0.10545383218417415,0.022371235748588916,0.8850495838649944,2.183145294082263,0.820963126564727,0.18087769093122996
0.2408759124087591,-1.98936230812536,-1.972301475512858,1.5105802335730107,0.0022178343221527885,0.12607454586075198,0.3218285453211301,0.12224224298149769,0.02609116737828464,0.9383963447684407,2.286971214107827,0.8569160973510508,0.19095469520808087
0.26094890510948904,-1.9866497877066767,-1.9654012918507018,1.5131985729951125,0.002778472609139734,0.1453416143632361,0.3684892157096574,0.13969258927038045,0.030003076317945382,0.987633424696702,2.3767964778530226,0.8871860469620149,0.20007961363991986
0.28102189781021897,-1.9835423477610634,-1.9575508426476202,1.5161716032762094,0.0034191118437302535,0.16555311425912522,0.4168097943924332,0.157692972901801,0.034088172353402224,1.032855216200708,2.4530302351755346,0.9119492028463719,0.2082775964998767
0.3010948905109489,-1.9800218964254992,-1.9487196207623538,1.519509235552902,0.004143032057410765,0.18662968370544256,0.4665225427395792,0.17613502027571604,0.03832816827594879,1.0741561118313867,2.5160816359330456,0.9313817924528607,0.2155737940610811
0.32116788321167883,-1.9760719101953117,-1.9388823919962699,1.5232192487352814,0.004953152567548189,0.20849384871023113,0.5173679051183727,0.19491388234105517,0.042705279882341324,1.111630504139658,2.5663598299832318,0.9456600432302329,0.22199335659666258
0.34124087591240876,-1.9716773961671612,-1.9280190314334211,1.527307359997906,0.005852042037499193,0.23107002313255248,0.5690945088932443,0.21392823459572297,0.04720222597479867,1.1453727856764555,2.60427396718378,0.9549601826272315,0.2275614343797508
0.3613138686131387,-1.9668248542820146,-1.9161143597805994,1.5317772952707853,0.006841928536719454,0.2542845086824861,0.621459164425778,0.2330802770865998,0.05180222836100229,1.1754773489927013,2.6302331973923687,0.9594584380926063,0.23230317768347564
0.3813868613138686,-1.9615022395681267,-1.9031579797073919,1.5366308597303513,0.007924709600872895,0.27806549492112975,0.6742268650747107,0.2522757344095412,0.05648901185409615,1.2020385866393228,2.64464667046668,0.959331037075102,0.23624373678096672
0.40145985401459855,-1.9556989243840195,-1.8891441121862393,1.541868008290446,0.009101962291940956,0.3023430592606007,0.7271707871959341,0.27142385570937666,0.06124680427268691,1.2251508911672468,2.647923536264394,0.9547542070234665,0.23940826194535347
0.4215328467153285,-1.9494056606614654,-1.874071432832496,1.547486916093298,0.010374953258331826,0.32704916696403474,0.7800722901424939,0.2904374146799106,0.0660603364408438,1.244908655127404,2.6404729446431987,0.9459041753864459,0.24182190344976595
0.4416058394160584,-1.9426145421484597,-1.85794290824448,1.5534840490004995,0.011744648794989708,0.35211767114558423,0.832720916264587,0.3092327095639238,0.0709148421880986,1.2614062710707108,2.622704045460764,0.9329571696127867,0.2435098115673335
0.46167883211678834,-1.9353189666522088,-1.8407656323435366,1.5598542340839898,0.013211724903504057,0.3774843127704236,0.8849143909095674,0.32772956315316937,0.07579605834944571,1.2747381315481066,2.595025988574784,0.916089417151235,0.244497136571186
0.4817518248175182,-1.927513598282102,-1.8225506627140913,1.5665907301170325,0.01477657735221887,0.40308672065474194,0.9364586224219392,0.34585132278837877,0.08069022476534213,1.2849986291105062,2.5578479238429277,0.8954771454505386,0.24480902873445298
0.5018248175182481,-1.919194329692697,-1.8033128569437096,1.5736852980651963,0.016439331736341885,0.42886441146575016,0.9871677021433634,0.36352486035925546,0.08558408428170748,1.2922821563088447,2.5115790011228887,0.8712965819594438,0.24447063833026433
0.5218978102189781,-1.9103582443266958,-1.7830707089631492,1.5811282715773325,0.01819985353805386,0.45475878972167544,1.0368639044126522,0.3806805723044789,0.0904648827499239,1.2966831056940444,2.456628370272341,0.8437239541266977,0.2435071156317496
0.541970802919708,-1.901003578657924,-1.761846185386421,1.5889086274765554,0.02005775818661781,0.4807131477917634,1.0853776865657707,0.39725237961170395,0.09532036902683612,1.298295869817032,2.3934051811489656,0.8129354894010445,0.2419436109120382
0.5620437956204379,-1.8911296844343177,-1.7396645618508488,1.597014056251225,0.022012421118488328,0.506672665896281,1.1325476889358426,0.41317772781755957,0.10013879497475162,1.2972148412287345,2.322318583610447,0.7791074152312341,0.2398052744442603
0.5821167883211679,-1.8807369909208917,-1.7165542593571173,1.6054310325459207,0.024062987837420717,0.5325844121065106,1.1782207348531397,0.42839758700765057,0.10490891546144031,1.2935344124800805,2.243777727514468,0.7424159590660104,0.2371172565015453
0.6021897810218978,-1.8698269671427261,-1.6925466806093359,1.6141448856524234,0.02620838397458032,0.5583973423447548,1.2222518306450896,0.44285645181655564,0.10961998836013474,1.2873489761219943,2.1581917627187055,0.7030373483541217,0.23390470735702276
0.6222627737226277,-1.8584020841279474,-1.6676760463550948,1.6231398700006978,0.028447325348651784,0.5840623003843337,1.2645041656362737,0.4565023414278292,0.11426177454953003,1.278752924705403,2.0659698390808434,0.6611478105443123,0.2301927772838225
0.6423357664233577,-1.846465777150704,-1.6419792317255222,1.6323992356498693,0.030778328025948265,0.6095320178495869,1.3048491121484271,0.4692867995740005,0.11882453791378399,1.267840650781234,1.9675211064585656,0.6169235730853333,0.22600661655507442
0.6624087591240876,-1.834022407974147,-1.6154956025753369,1.6419052987792018,0.033199718380520694,0.6347611142158724,1.3431662255004386,0.48116489453657263,0.1232990453425169,1.2547065469004144,1.8632547147095506,0.5705408634259257,0.22137137544390784
0.6824817518248175,-1.821077227093409,-1.588266851822909,1.6516395121790783,0.035709643154267036,0.6597060968095654,1.3793432440083488,0.4920952191460264,0.12767656673081174,1.2394450056138677,1.7535798136914786,0.5221759090148392,0.21631220422345246
0.7025547445255474,-1.8076363359785872,-1.5603368357903185,1.6615825357419842,0.038306079517041555,0.6843253608080616,1.4132760889853548,0.5020398907818138,0.13194887497921393,1.2221504194725215,1.6389055532620325,0.4720049373008215,0.2108542531668381
0.7226277372262774,-1.7937066493177207,-1.531751410543409,1.6717143069534828,0.040986845126764045,0.7085791892397741,1.444868864741806,0.5109645513723644,0.13610824599373172,1.202917181027305,1.519641083278897,0.4202041757326178,0.20502267254719447
0.7427007299270073,-1.7792958572597686,-1.5025582682318446,1.6820141113831946,0.04374960818952908,0.7324297529841348,1.474033858585205,0.5188383673950823,0.14014745868583578,1.181839682829144,1.3961955535997514,0.36694985175897443,0.19884261263765124
0.7627737226277372,-1.7644123876575906,-1.4728067734291672,1.6924606531757767,0.04659189751971529,0.7558411107715929,1.5006915408202068,0.5256340298763454,0.1440597949724593,1.1590123174289608,1.268978114082273,0.3124181928286389,0.1923392237113379
0.7828467153284672,-1.7490653683109298,-1.4425477994728568,1.7030321255419074,0.04951111260009456,0.7787792091836188,1.524770564748624,0.5313277543915081,0.14783903977599833,1.1345294773776857,1.1383979145841472,0.25678542639035706,0.1855376560413842
0.8029197080291971,-1.7332645892093883,-1.4118335648043838,1.7137062812492592,0.05250453364194139,0.8012118826526989,1.5462077666694198,0.5358992810648989,0.1514794810243113,1.108485555226248,1.0048641049630591,0.20022777989287555,0.17846305990091998
0.822992700729927,-1.717020464775407,-1.380717469309267,1.7244605031134803,0.05556933164514198,0.8231088534623403,1.5649481658787114,0.5393318745698202,0.15497590965071928,1.0809749435255698,0.8687858350766845,0.14292148078494016,0.1711405855630747
0.843065693430657,-1.700343996107249,-1.3492539306571332,1.735271874489177,0.058702578458303685,0.8444417317470668,1.5809449646697695,0.5416123241285512,0.1583236195940059,1.0520920348265757,0.7305722547827033,0.0850427565152998,0.16359538330097811
0.8631386861313869,-1.683246733221976,-1.317498220641772,1.74611724976089,0.06190125683886409,0.8651840154924212,1.59415954833302,0.5427309435123456,0.16151840779841756,1.0219312216801988,0.5906325139388039,0.026767834532699375,0.15585260338776
0.8832116788321168,-1.6657407372984276,-1.2855063015211918,1.7569733248340738,0.06516227051320031,0.8853110905349655,1.604561485156041,0.5426815710414312,0.16455657421366307,0.9905868966373619,0.4493757624026634,-0.03172705771411355,0.14793739609654993
0.9032846715328468,-1.6478385429202016,-1.2533346623576778,1.7678167076260771,0.06848245423673832,0.9048002305622788,1.612128526423563,0.5414615695850115,0.16743492179491382,0.958153452248991,0.30721115003196253,-0.09026569277639362,0.13987491170047747
0.9233576642335767,-1.6295531203186358,-1.2210401553578503,1.7786239885571251,0.07185858385406212,0.9236305971129606,1.6168466064174734,0.5390718265612641,0.17015075650280392,0.9247252810660134,0.16454782668438583,-0.1486718432053915,0.13169030047267255
0.9434306569343066,-1.6108978376157854,-1.1886798322127197,1.7893718110412935,0.07528738635902307,0.9417832395766281,1.6187098424168105,0.5355167539373428,0.17270188730343006,0.8903967756393574,0.021794942217611135,-0.2067692815523663,0.12340871268626452
0.9635036496350364,-1.5918864230674021,-1.1563107804377442,1.8000369419774918,0.07876554995484897,0.9592410951939164,1.6177205346977674,0.5308042882293746,0.17508662616835136,0.855262328519947,-0.12063835351067598,-0.2643817803685651,0.1150552986143834
0.9835766423357664,-1.572532927305916,-1.1239899597128862,1.8105963422404425,0.08228973411425358,0.9759889890564807,1.6138891665336914,0.5249458905024635,0.17730378807458977,0.8194163322587114,-0.2623429106427957,-0.3213331122052443,0.1066552085301587
1.0036496350364963,-1.5528516855834127,-1.0917740382226704,1.8210272371716583,0.0858565796395456,0.9920136341069924,1.6072344041950812,0.5179565463706866,0.17935269100462964,0.7829531794065747,-0.4029095793210681,-0.37744704961365727,0.09823359270672005
1.0237226277372262,-1.5328572800146145,-1.0597192289962394,1.8313071870704247,0.08946271872273809,1.007303631139144,1.5977830969495925,0.5098547659970973,0.181233155946418,0.7459672625144635,-0.5419292096878099,-0.432547365145056,0.08981560141719724
1.0437956204379562,-1.5125645018198604,-1.027881126247411,1.8414141576847773,0.09310478500565772,1.0218494687976438,1.5855702770620301,0.5006625840937229,0.18294550689336447,0.7085529741333069,-0.6789926518853407,-0.4864578313506951,0.0814263849347199
1.063868613138686,-1.491988313568084,-0.996314541714736,1.8513265907024818,0.09677942364005387,1.035643523578222,1.570639159794358,0.4904055599215662,0.1844905708443413,0.6708047068140283,-0.8136907560559794,-0.5390022207818279,0.07309109353241755
1.083941605839416,-1.471143811419795,-0.9650733410015537,1.8610234742420149,0.10048330134770816,1.0486800598276238,1.553041143405688,0.47911277729060453,0.18586967780368324,0.6328168531075581,-0.9456143723420416,-0.5900043059897095,0.06483487748341996
1.104014598540146,-1.4500461873700576,-0.9342102799160505,1.8704844133435408,0.10421311648054331,1.0609552297436156,1.532835809152291,0.4668168445597911,0.18708466078118768,0.5946838055648195,-1.074354350885849,-0.6392878595255893,0.056682887060857
1.1240875912408759,-1.4287106914914705,-0.9037768408113148,1.879689700459894,0.10796560908073279,1.0724670733749808,1.5100909212875875,0.4535538946370532,0.18813785579211462,0.5564999567367397,-1.1995015418297186,-0.6866766539407219,0.04866027253785826
1.1441605839416058,-1.407152594177146,-0.8738230689253955,1.888620385947556,0.11173757094080988,1.0832155186215222,1.4848824270621528,0.43936358497929207,0.1890321018571866,0.5183596991742441,-1.320646795315971,-0.7319944617863618,0.04079218418755326
1.1642335766423357,-1.3853871483836921,-0.8443974087213592,1.8972583485576384,0.11552585566377682,1.093202381234061,1.4572944567237172,0.4242890975923861,0.1897707410025889,0.48035742542826276,-1.4373809614869226,-0.7750650556137644,0.03310377228307171
1.1843065693430657,-1.3634295518741872,-0.8155465402273447,1.9055863659268566,0.1193273887232143,1.1024313648144357,1.4274193235171622,0.4083771390311881,0.1903576182599692,0.4425875280497221,-1.54929489048489,-0.8157122079741801,0.02562018709754338
1.2043795620437956,-1.3412949094611655,-0.7873152153766235,1.913588185068516,0.12313917752339051,1.1109080608155053,1.3953575236845261,0.3916779403995243,0.19079708166643786,0.4051443995895442,-1.6559794324521966,-0.8537596914188612,0.01836657890409793
1.2244525547445255,-1.3189981952495924,-0.7597460943476534,1.9212485928634868,0.12695832145937058,1.1186399485411465,1.3612177364649969,0.3742452573501964,0.1910939822645678,0.3681224325986596,-1.757025437531158,-0.8890312784990642,0.01136809797586491
1.2445255474452555,-1.296554214879846,-0.7328795819041377,1.928553486551185,0.13078202197712557,1.1256363951462534,1.3251168240949196,0.3561363700849831,0.19125367410239472,0.3316160196279946,-1.8520237558640917,-0.9213507417660418,0.004649894585974201
1.2645985401459854,-1.2739775677706955,-0.7067536637350806,1.9354899442205524,0.13460759263364203,1.1319086556367406,1.2871798318077912,0.337412083354635,0.19128201423341662,0.29571955322847254,-1.9405652375933198,-0.9505418537710446,-0.0017628809924447042
1.2846715328467153,-1.251282609362283,-0.6814037427948458,1.9420462953010347,0.13843246915703095,1.1374698728695396,1.247539987834263,0.3181367264588788,0.19118536271659425,0.26052742595102374,-2.022240732861157,-0.9764283870653303,-0.007845078486262091
1.3047445255474452,-1.228483413359101,-0.6568624756432112,1.948212191053563,0.14225421950663736,1.1423350775526013,1.2063387034021382,0.29837815324641825,0.19097058261635103,0.2261340303465731,-2.096641091809925,-0.9988341142001487,-0.013571547622348218
1.3248175182481752,-1.205593733972973,-0.6331596087854282,1.9539786750615313,0.1460705539331491,1.1465211882448951,1.1637255727363771,0.2782077421149285,0.19064504000257274,0.19263375896604717,-2.16335716458194,-1.0175828077267561,-0.018917138127573396
1.344890510948905,-1.1826269681660329,-0.6103218150122767,1.9593382537217778,0.1498793350387067,1.1500470113564092,1.1198583730590903,0.25770039601106065,0.19021660395060797,0.16012100436037469,-2.2219798013195207,-1.0324982401964047,-0.02385669972880819
1.364963503649635,-1.1595961178937042,-0.5883725297401234,1.9642849667355624,0.15367858783701194,1.1529332411481485,1.0749030645895437,0.23693454243044343,0.18969364654126789,0.12869015908047765,-2.2720998521649873,-1.0434041841603452,-0.028365082152922494
1.385036496350365,-1.1365137523476811,-0.5673317873509778,1.9688144575995479,0.1574665098134377,1.1552024597321395,1.0290337905441564,0.21599213341767687,0.18908504286082609,0.09843561567728676,-2.313308167260657,-1.0501244121698345,-0.032417135126786845
1.405109489051095,-1.1133919701989057,-0.5472160575325493,1.9729240440967792,0.16124148098513688,1.1568791370714249,0.9824328771365007,0.1949586455663379,0.18840017100101894,0.06945176670172648,-2.345195596748849,-1.0524826967761258,-0.035987708377271777
1.4251824817518248,-1.0902423618405508,-0.5280380816183052,1.9766127887876617,0.1650020739611517,1.1579896309800657,0.9352908335773034,0.17392308001897794,0.18764891205904533,0.04183300470472484,-2.367352990771881,-1.0503028105304713,-0.03905165163124742
1.4452554744525548,-1.067075971630996,-0.5098067089275256,1.9798815695009422,0.16874706400252304,1.1585621871231435,0.8878063520744441,0.1529779624671237,0.18684165013756668,0.015673722237206755,-2.379371199472072,-1.0434085259841241,-0.04158381461558415
1.4653284671532847,-1.0439032601368106,-0.49252673310536205,1.982733149824687,0.17247543908239954,1.1586269390167565,0.8401863078329572,0.13221934315127593,0.18598927234470705,-0.008931688149900419,-2.380841072991741,-1.0316236156883385,-0.043559047057152134
1.4854014598540146,-1.0207340663757305,-0.4761987284628939,1.985172249597263,0.17618640994614704,1.158215908028023,0.7926457590550293,0.11174679686091116,0.18510316879405322,-0.03188883390566932,-2.371353461473205,-1.014771852194368,-0.04495219868282192
1.5054744525547445,-0.9975775700596401,-0.46081888631718526,1.9872056153983166,0.17987942017145772,1.1573630033750781,0.7454079469400015,0.09166342293448126,0.1841952326046544,-0.05310332247917504,-2.350499215058785,-0.9926770080534635,-0.045738119219463594
1.5255474452554745,-0.9744422538375501,-0.44637885133134164,1.9888420910397517,0.18355415622845933,1.156104022127077,0.6987042956843682,0.07207584525941035,0.1832778599010224,-0.07248076131948933,-2.3178691838907968,-0.9651628558168821,-0.045891658393947675
1.5456204379562044,-0.9513358655385787,-0.4328655578545674,1.9900926880567116,0.18721055753982455,1.154476649204193,0.6527744124817778,0.05309421227210187,0.18236394981313175,-0.08992675787568727,-2.2730542181115614,-0.9320531680358743,-0.04538766593314436
1.5656934306569343,-0.9282653804149295,-0.42026106626222204,1.9909706561985572,0.19084882654088015,1.1525204573776167,0.6078660875230317,0.03483219695792994,0.1814669044764194,-0.10534691959684173,-2.215645167863395,-0.8931717172616933,-0.044200991563924034
1.5857664233576643,-0.9052369633848729,-0.4085423992958779,1.9914915539198457,0.19446943873971617,1.150276907269559,0.564235293996086,0.017406996851246248,0.18060062903178498,-0.11864685393202379,-2.1452328832886174,-0.8483422760455968,-0.04230648501315715
1.6058394160583942,-0.8822559312757247,-0.3976813784033764,1.9916733188713123,0.19807315277729548,1.1477893473532483,0.5221461880860494,0.0009393340353769375,0.17977953162559093,-0.1297321683303112,-2.0614082145295485,-0.7973886169388358,-0.039678996007714004
1.6259124087591241,-0.8593267150668253,-0.3876444600788852,1.9915363383908484,0.20166102048756263,1.145103013952932,0.4818711089751838,-0.014446544857377619,0.17901852340966184,-0.13850847024077328,-1.9637620117285033,-0.7401345124926619,-0.036293374274464746
1.645985401459854,-0.8364528221325214,-0.3783925722029556,1.9911035199944804,0.2052343969575533,1.142265031243876,0.44369057884290675,-0.028622868645741706,0.17833301854128525,-0.14488136711248423,-1.8518851250278026,-0.6764037352583303,-0.032124469540280004
1.666058394160584,-0.8136367984851425,-0.36988095038257834,1.9904003618673498,0.20879495058750375,1.1393244112523637,0.40789330286578723,-0.04145834159946471,0.17773893418321113,-0.14875646639452178,-1.7253684045697648,-0.6060200577870898,-0.027147131532029217
1.686131386861314,-0.7908801910179837,-0.362058974291242,1.9894550233546944,0.21234467315095953,1.136332053855699,0.3747761692175495,-0.052818143439320675,0.17725269050365206,-0.15003937553595392,-1.5838027004967088,-0.5288072526302035,-0.02133620997658403
1.7062043795620438,-0.7681835097482825,-0.3548700040089885,1.9882983954528244,0.21588588985488544,1.1333407467822025,0.3446442490690702,-0.0625639293371103,0.17689121067628327,-0.14863570198585752,-1.4267788629509517,-0.44458909233891575,-0.014666554600813841
1.7262773722627738,-0.7455461900602012,-0.348251216362471,1.986964171300105,0.21942126939977408,1.1304051656112144,0.31781079658838063,-0.07055382991565673,0.17667192088024244,-0.1444510531933041,-1.2538877420748147,-0.35318934946448266,-0.007113015131589184
1.7463503649635037,-0.7229665549478038,-0.34213344126501055,1.9854889166679344,0.22295383403975566,1.1275818737730927,0.2945972489406647,-0.07664245124880997,0.17661275030013035,-0.13739103660736696,-1.064720188010611,-0.2544317965581637,0.0013495587042188228
1.7664233576642336,-0.7004417772580382,-0.3364409980566528,1.983912140451723,0.22648696964270693,1.1249293225492147,0.27533322628826096,-0.08068087486144526,0.17673213112600933,-0.12736125967712386,-0.8588670509006673,-0.14814020617119716,0.010746317179741616
1.7864963503649636,-0.6779678419337134,-0.33109153184422524,1.982276365161874,0.23002443575036052,1.1225078510719764,0.260356531790661,-0.08251665772946237,0.1770489985534055,-0.11426732985164012,-0.6359191808872922,-0.03413835085485317,0.021102410568107355
1.8065693430656935,-0.6555395082564813,-0.32599584984139385,1.980627197414763,0.2335703756384142,1.1203796863247906,0.25001315160451,-0.08199383227978602,0.1775827907833068,-0.09801485457999792,-0.39546742811281366,0.0877499968396247,0.032442989142446144
1.8266423357664234,-0.6331502720898142,-0.3210577577087203,1.9790133984237146,0.23712932637664016,1.11860894314209,0.24465725488360693,-0.07895290639036451,0.17835344902216407,-0.07850944131126347,-0.13710264271954298,0.2177010643609787,0.04479320317588764
1.8467153284671534,-0.610792652573725,-0.31617350796622784,1.9774864070183278,0.24070584016596608,1.1171156810652727,0.24482433376905308,-0.0734773484482249,0.1792067393075773,-0.09940367664404132,0.19067000542322665,0.28187171336120964,0.005922928272467883
1.8667883211678833,-0.5884772215612756,-0.3112105742289677,1.9760679500395217,0.24428187440766372,1.1140817537730459,0.2528619900312554,-0.06862894254654338,0.17793988441430017,-0.2031052258969357,0.6085648631893653,0.2036923503984345,-0.13112044335592626
1.8868613138686132,-0.5662428575011115,-0.30600511086247023,1.9747311132668612,0.24780575482960365,1.1090264996440542,0.268987665088897,-0.06530100123489818,0.17402079309029914,-0.3015526329510118,0.9995702397959122,0.1298109670440322,-0.2593330874404886
1.9069343065693432,-0.5441289426105808,-0.3004006960451273,1.9734463412895429,0.25122618989962425,1.1020540251644426,0.29266947060851184,-0.06340842215994008,0.16762413752801483,-0.3948435335894908,1.3642762642154438,0.06014183941602481,-0.3789092398248809
1.9270072992700729,-0.5221727965044645,-0.2942514276962054,1.9721857635990516,0.2544953426822432,1.0932664841046902,0.3233873208360852,-0.06286781744596134,0.15892070520301385,-0.4830755635955979,1.7032730654205286,-0.005400756367530096,-0.490043136352763
1.9470802919708028,-0.5004097152492918,-0.2874216874242568,1.9709231602996136,0.2575687531443217,1.0827640775196132,0.360632932597054,-0.06359751369489221,0.14807739887398988,-0.5663463587525576,2.017150772383739,-0.06690254418859969,-0.592929012867793
1.9671532846715327,-0.4788730104176509,-0.2797859044755301,1.9696339278186346,0.2604052604607252,1.0706450537483605,0.40390982529630604,-0.06551755198630169,0.13525723658276342,-0.6447535548435936,2.3064995140776463,-0.12444924792911408,-0.6877611052136312
1.9872262773722627,-0.457594048142505,-0.2712283196823824,1.9682950446171585,0.26296692531998767,1.0570057084144207,0.4527333209181817,-0.06854968787739901,0.12061935165428156,-0.7183947876519309,2.5719094194748235,-0.17812659147105098,-0.7747336492339375
2.0072992700729926,-0.43660228817150293,-0.2616427494116888,1.966885036900303,0.26521895222997227,1.0419403844256132,0.5066305440264715,-0.0726173914030331,0.10431899269661833,-0.7873676929607937,2.813970617547841,-0.2280202986963495,-0.8540408807723708
2.0273722627737225,-0.4159253229212951,-0.2509323495132546,1.9653839443277186,0.26712961182353623,1.0255414719740972,0.5651404217644181,-0.07764584707568903,0.0865075236009747,-0.8517699065534058,3.0332732372692717,-0.27421609348696774,-0.9258770356725916
2.0474452554744524,-0.39558891653184364,-0.23900937926822513,1.963773285724023,0.2686701631641907,1.0078994085363635,0.6278136838547155,-0.0835619538854934,0.06733242354167833,-0.9116990642129922,3.230407407611684,-0.31679969972486427,-0.9904363497782589
2.0675182481751824,-0.37561704392073947,-0.22579496533749807,1.962036024789261,0.26981477605176574,0.9891026788732425,0.6942128625995092,-0.09029432530021138,0.04693728697618365,-0.9672528017227757,3.405963257547654,-0.3558568412919957,-1.0479130589330332
2.0875912408759123,-0.356031929837512,-0.2112188657101329,1.9601565358093405,0.27054045332807103,0.9692378150298967,0.7639122928803961,-0.0977732892652477,0.025461823645071813,-1.018528754865982,3.5605309160497502,-0.391473242070306,-1.0985013989805728
2.1076642335766422,-0.3368540879179449,-0.19521923365176333,1.9581205693664905,0.27082695318255967,0.9483893963358259,0.8364981121584242,-0.10593088820364471,0.0030418585720512394,-1.0656245594258358,3.6947005120905456,-0.4237346259417529,-1.142395605764538
2.127737226277372,-0.3181023597383882,-0.17774238165300718,1.9559152180496975,0.2706567114579898,0.9266400494048643,0.9115682604740932,-0.11470087901608461,-0.02019066793604348,-1.1086378511855604,3.8090621746426114,-0.4527267167882928,-1.179789915128588
2.147810218978102,-0.2997939538700717,-0.15874254537787771,1.9535288821651595,0.2700147639560876,0.9040704481351824,0.9887324804473545,-0.12401873308088941,-0.04410770028925068,-1.14766626592838,3.904206032678518,-0.4785352384918763,-1.2108785629163825
2.167883211678832,-0.28194448493341884,-0.1381816476121951,1.9509512354467344,0.26888866874321,0.880759313709287,1.0676123172776102,-0.13382163625401994,-0.06858506761448163,-1.1828074394375185,3.9807222151708395,-0.5012459149344626,-1.2358557849715823
2.187956204379562,-0.2645680126523591,-0.11602906221199641,1.9481731907663808,0.2672684284560066,0.8567834145940181,1.147841118743714,-0.14404848886907512,-0.09350248375552105,-1.2141590074962016,4.0392008510921436,-0.5209444699979995,-1.2549158171378445
2.208029197080292,-0.24767708090864252,-0.09226137805194753,1.9451868658446119,0.2651464126070831,0.8322175665405537,1.2290640352039732,-0.15463990573729275,-0.11874354727302693,-1.2418186058876528,4.080232069415008,-0.5377166275644476,-1.2682528952588314
2.228102189781022,-0.23128275679615135,-0.06686216297375341,1.941985548960937,0.26251727989066265,0.8071346325844053,1.3109380195961424,-0.16553821614755188,-0.1441957414445303,-1.265883870395096,4.104405999111997,-0.5516481115157568,-1.2760612551782011
2.2481751824817517,-0.215394669675215,-0.039821727734569726,1.9385636646643143,0.25937790048824966,0.7816055230454216,1.3931318274374311,-0.17668746386636827,-0.16975043426443528,-1.2864524368017565,4.11231276915569,-0.5628246457338822,-1.278535132739614
2.2682481751824817,-0.20002105022692201,-0.011136889955413051,1.9349167394835927,0.25572727837429116,0.7556991955277854,1.4753260168244986,-0.1880334071378991,-0.19530287844401953,-1.3036219408908574,4.1045425085186515,-0.5713319541007771,-1.2758687637867288
2.2883211678832116,-0.1851687695074343,0.019189261930427394,1.9310413676379632,0.25156647362184037,0.729482654920016,1.557212948433456,-0.19952351868393767,-0.2207522114114335,-1.3174900184456242,4.081685346173458,-0.5772557604983981,-1.2682563841632057
2.3083941605839415,-0.17084337800229968,0.05114760472897948,1.9269351767474034,0.2468985247082185,0.7030209533949678,1.6384967855198664,-0.21110698570391934,-0.2460014553117013,-1.32815430524928,4.04433141109268,-0.580681788808697,-1.255892229712704
2.3284671532846715,-0.15704914468076595,0.08472321653717656,1.9225967935431278,0.2417283708206777,0.6763771904098307,1.7188934939187437,-0.2227347098749166,-0.2709575170067196,-1.3357124370850502,3.993070832248889,-0.5816957629136275,-1.238970536278884
2.3485401459854014,-0.14378909605009346,0.11989561279444673,1.9180258095780314,0.23606277416206345,0.6496125127061304,1.798130842044553,-0.23435930735164207,-0.295531188075259,-1.3402620497361584,3.9284937386146552,-0.5803834066951457,-1.2176855397054052
2.3686131386861313,-0.1310650552098686,0.1566389823343023,1.913222746937137,0.22991024225647663,0.6227861143097273,1.875948400891211,-0.24593510876644586,-0.3196371448129626,-1.3419007789858286,3.85119025916255,-0.5768304440352032,-1.1922314758359256
2.3886861313868613,-0.11887768090631746,0.19492242343592792,1.908189023948047,0.22328095025493733,0.5959552365308184,1.9520975440320858,-0.2574181592293197,-0.343193948232347,-1.340726260617285,3.761750522865145,-0.5711225988157578,-1.162802580514106
2.408759124087591,-0.10722650658661884,0.23471017987577059,1.902926920891388,0.21618666324104605,0.5691751679639359,2.0263414476199983,-0.26876621832789266,-0.3661240440628023,-1.336836130413753,3.6607646586950158,-0.5633455949187589,-1.1295930895836066
2.428832116788321,-0.09610997945321731,0.275961876979128,1.8974395457112543,0.20864065853664687,0.5424992444879467,2.09845509038722,-0.27993876012743274,-0.3883537627505914,-1.3303280241584572,3.5488227956247327,-0.5535851562261642,-1.0927972388880873
2.448905109489051,-0.08552549951813684,0.3186327576717375,1.8917307997256598,0.20065764800748967,0.5159788492660543,2.1682252536454714,-0.2908969731708481,-0.40981331945885013,-1.3212995776346197,3.4265150626268626,-0.5419270066199275,-1.0526092642712057
2.468978102189781,-0.07546945865729408,0.362673918531366,1.8858053433369852,0.19225370036889333,0.48966341274579744,2.2354505212859266,-0.3016037604786853,-0.43043681406758805,-1.3098484266254664,3.294431588673983,-0.5284568699820014,-1.0092234015766235
2.489051094890511,-0.06593727966481146,0.4080325458393981,1.8796685617424238,0.18344616349140755,0.46360041265904983,2.299941279779214,-0.3120237395491305,-0.4501622311736882,-1.2960722069142208,3.1531625027386614,-0.5132604701943402,-0.9628338866479988
2.509124087591241,-0.056923455307330485,0.4546521516324251,1.8733265306444256,0.17425358670647545,0.43783537402202105,2.3615197181754075,-0.3221232423580075,-0.46893144009090554,-1.2800685542841082,3.0032979337934713,-0.49642353113889914,-0.9136349553289921
2.5291970802919708,-0.04842158737832526,0.5024728097538352,1.8667859819611514,0.1646956431120966,0.4124118691352561,2.420019828104037,-0.3318703153587802,-0.48669019484986953,-1.2619351045183513,2.845428010810982,-0.478031776697631,-0.8618208434632618
2.5492700729927007,-0.04042442575241575,0.5514313919054008,1.8600542695369162,0.1547930518784894,0.38737151758363636,2.4752874037740824,-0.34123471948255324,-0.5033881341980824,-1.2417694934001764,2.680142862763769,-0.4581709307524915,-0.8075857868944694
2.5693430656934306,-0.03292390743968064,0.6014618036988689,1.8531393348526337,0.144567500553753,0.36275398623637733,2.5271800419739745,-0.3501879301380676,-0.5189787815999192,-1.219669356712807,2.5080326186244033,-0.43692671718543297,-0.7511240214662736
2.5894160583941606,-0.025911195639971078,0.6524952207075494,1.8460496727362679,0.13404156736953055,0.3385969892470304,2.575567142071595,-0.358703137211704,-0.5334195452366285,-1.1957323302394665,2.3296874073654537,-0.4143848598784112,-0.6926297830223338
2.6094890510948905,-0.019376718797223882,0.7044603245179044,1.8387942970732787,0.12323864354667152,0.3149362880534833,2.620329906014278,-0.3667552450674838,-0.5466717180063319,-1.1700560497633794,2.1456973579594916,-0.3906310827133779,-0.6322973074063092
2.6295620437956204,-0.013310209653774763,0.7572835387811376,1.8313827065170714,0.11218285560089436,0.29180569137795864,2.6613613383288115,-0.3743208725470657,-0.5587004775240247,-1.1427381510677712,1.9566525993790922,-0.36575110957228985,-0.5703208304618604
2.6496350364963503,-0.007700744304671542,0.8108892652647823,1.823824850199438,0.10089898764844865,0.2692370552270145,2.6985662461214304,-0.3813783529697482,-0.5694748861215746,-1.1138762699358653,1.7631432605968271,-0.33983066433709785,-0.506894588032647
2.6697080291970803,-0.0025367812519875178,0.8652001199042912,1.8161310934410093,0.0894124037117778,0.2472602828915445,2.7318612390778227,-0.3879077341324684,-0.5789678908477232,-1.0835680421508855,1.5657594705852627,-0.31295547088976017,-0.4422128159623271
2.68978102189781,0.002193799540865118,0.9201371688546257,1.8083121834617024,0.07774897002518191,0.22590332494677784,2.761174729463129,-0.3938907783098038,-0.5871563234680847,-1.0519111034960569,1.3650913583169757,-0.2852112531122266,-0.3764697500945622
2.70985401459854,0.006503657594822181,0.9756201645418443,1.8003792150911675,0.06593497734048026,0.20519217925227992,2.786446932121941,-0.39931096225396945,-0.5940209004651471,-1.0190030897546045,1.1617290527645374,-0.25668373488645546,-0.3098596262730115
2.72992700729927,0.010405952860854223,1.0315677817146915,1.792343596479228,0.05399706323267279,0.18515089095194986,2.8076298644783004,-0.4041534771948201,-0.5995462230382711,-0.9849416367097503,0.9562626829005159,-0.22745864009439964,-0.24257668034133384
2.75,0.01391430666565305,1.0878978534961878,1.7842170148063408,0.04196213440560439,0.1658015524740242,2.8246873465357,-0.4084052288398494,-0.6037207771036903,-0.9498243801447198,0.7492823776974857,-0.19762169261800855,-0.1748151481431886
2.77007299270073,0.017042762657318508,1.1445276074352178,1.7760114019940336,0.0298572889976262,0.14716430353107401,2.83759500087709,-0.412054837374191,-0.6065369332945131,-0.9137489558427383,0.5413782661280178,-0.16725861633924177,-0.1067692655222367
2.79014598540146,0.019805747751045384,1.2013739015581193,1.7677389004153548,0.017709738887258283,0.12925733112000604,2.8463402526648633,-0.41509263746061653,-0.6079909469607191,-0.8768129995870287,0.3331404771646831,-0.13645513514005359,-0.038633268322136594
2.81021897810219,0.022218033074809743,1.2583534604202717,1.7594118286053209,0.005546731998852895,0.11209686952206285,2.850922329640868,-0.4175106782395368,-0.608082958169162,-0.8391141471608162,0.125159139780056,-0.1052969729023947,0.0293986076134507
2.8302919708029197,0.024294694915056047,1.3153831111576881,1.7510426469713647,-0.006604525391744075,0.09569720030282207,2.851352262126407,-0.41930272332900254,-0.606816991703569,-0.8007500343473246,-0.0819756170532937,-0.07386985350822117,0.09713212644086683
2.8503649635036497,0.026051075662383544,1.3723800195386013,1.7426439235037807,-0.018716946351529908,0.08007065231219686,2.8476528830222287,-0.42046425082470207,-0.6042009570645396,-0.7618182969297776,-0.2876736643627984,-0.042259500839486375,0.1643730523164525
2.8704379562043796,0.027502744757233185,1.4292619260150519,1.7342282994861744,-0.030763640984682164,0.06522760168443646,2.839858827808538,-0.4209924532999647,-0.6002466484695475,-0.7224165706914005,-0.4913448731758816,-0.010551638778144579,0.23092714939654768
2.8905109489051095,0.028665459635574153,1.4859473817744817,1.7258084552059072,-0.042717994126897266,0.051176471838124814,2.8280165345449877,-0.4208862378057565,-0.5949697448529387,-0.6826424914154171,-0.6923991145199713,0.02116800879385128,0.29660018183749204
2.9105839416058394,0.029555126674590773,1.5423559847913177,1.717397075664545,-0.054553743039726696,0.037923733476182234,2.8121842438706826,-0.42014622587068606,-0.5883898098659333,-0.6425936948850521,-0.8902462594224971,0.05281371799454382,0.361197913795626
2.9306569343065694,0.030187762138369083,1.598408615878566,1.7090068162883054,-0.06624505510491555,0.02547390458586378,2.7924319990041817,-0.41877475350099647,-0.5805302918766235,-0.602367816883529,-1.0842961789108916,0.08429976494198033,0.4245261094272912
2.9507299270072993,0.030579453123583577,1.6540276747393954,1.700650268638505,-0.07776660551873903,0.01382955043876063,2.768841645743492,-0.4167758711805747,-0.5714185239699756,-0.562062493194073,-1.2739587440125737,0.11554042575421075,0.4863905328888266
2.9708029197080292,0.030746318505183938,1.7091373160187322,1.6923399261220056,-0.08909365498634084,0.002991283590798938,2.741506832466073,-0.4141553438709429,-0.5610857239478289,-0.5217753595999075,-1.4586438257549803,0.14644997654927483,0.5465969483365738
2.990875912408759,0.03070446988208172,1.763663685354844,1.6840881497016622,-0.10020212741606986,-0.007042236117759145,2.710533010128838,-0.4109206510112644,-0.5495669943288957,-0.4816040518842575,-1.6377612951655403,0.1769426934452205,0.6049511199268727
3.010948905109489,0.030469972522837063,1.8175351554309338,1.6759071336067717,-0.11106868761381825,-0.016274301562316334,2.676037432268148,-0.4070809865183411,-0.5369013223487613,-0.4416462058303469,-1.810721023271673,0.20693285256009708,0.6612588118160632
3.031021897810219,0.03005880631134544,1.8706825620267236,1.667808871043516,-0.12167081897735829,-0.024710158333939497,2.638149154999818,-0.40264725878661434,-0.5231315799598849,-0.40199945722140024,-1.9769328811008133,0.23633473001194694,0.715325788160486
3.051094890510949,0.029486826692524306,1.923039440070049,1.6598051199054136,-0.13198690119068054,-0.03235700473936028,2.597009037019113,-0.3976320906881632,-0.5083045238315981,-0.3627614418406414,-2.1358067396803895,0.2650626019188167,0.7669578131164816
3.071167883211679,0.028769725617999876,1.974542259688442,1.6519073684837644,-0.1419962879183305,-0.039223991800974536,2.5527697396007496,-0.39204981957270735,-0.49247079535010607,-0.3240297954712952,-2.286752470037829,0.2930307443987523,0.8159606508403905
3.091240875912409,0.027922992491793787,2.0251306622607266,1.644126801178098,-0.15167938449974677,-0.045322223256842965,2.5055957265988984,-0.38591649726760546,-0.4756849206184876,-0.2859021538965855,-2.429179943200562,0.32015343356979953,0.8621400654885535
3.1113138686131387,0.026961875116009778,2.0747476964686036,1.6364742642066195,-0.1610177256435984,-0.050664755560690396,2.455663264447175,-0.37924989007785426,-0.45800531045669335,-0.24847615289973682,-2.5624990301960135,0.34634494555000395,0.9053018212173096
3.1313868613138687,0.025901340636520526,2.1233400543482395,1.628960231316659,-0.1699940531221218,-0.05526659788190636,2.403160422158656,-0.372069478786091,-0.4394942604015489,-0.21184942826397338,-2.686119602051613,0.3715195564574132,0.9452516821830002
3.1514598540145986,0.02475603648865419,2.1708583073418595,1.621594769495116,-0.17859239346545897,-0.059144712105544756,2.348287071325861,-0.36439645865259007,-0.4202179507067515,-0.17611961577251906,-2.799451529794791,0.3955915424100722,0.9817954125419661
3.1715328467153285,0.02354025134288127,2.2172571423493297,1.6143875046789091,-0.18679813565599424,-0.06231801283232399,2.2912548861207647,-0.35625373941526584,-0.40024644634287276,-0.14138435120859882,-2.9019046844529743,0.41847517952602603,1.0147387764505469
3.1916058394160585,0.022267876050501213,2.2624955977797554,1.607347587465422,-0.19459810882269254,-0.06480736737862709,2.232287343294792,-0.3476659452896729,-0.37965369699735657,-0.10774127035543643,-2.992888937053589,0.44008474392332175,1.043887538065083
3.2116788321167884,0.02095236458932919,2.3065372996030593,1.600483658822951,-0.20198065993543599,-0.06663559577650134,2.1716197221788214,-0.33865941496900387,-0.35851753707452066,-0.0752880089962568,-3.0718141586240684,0.46033451172000317,1.0690474615419152
3.2317518248175183,0.019606695009382745,2.349350697401581,1.5938038158011518,-0.2089357314993621,-0.06782747077365875,2.109499104683181,-0.3292622016240896,-0.33691968569555575,-0.04412220291428339,-3.1380902201918364,0.479138759034121,1.0900243110373835
3.2518248175182483,0.018243330378568588,2.390909300421659,1.5873155772414878,-0.21545493924920073,-0.06840971783347556,2.04618437529765,-0.3195040729034022,-0.3149457466985255,-0.014341487892741107,-3.191126992784326,0.4964117619837159,1.1066238507078288
3.271897810218978,0.0168741797283692,2.4311919136252214,1.5810258494876752,-0.2215316498436119,-0.06841101513499277,1.9819462210914596,-0.3094165109330511,-0.29268520863836694,0.013956500285146143,-3.23033434742896,0.5120677966868357,1.118651844709591
3.291970802919708,0.01551055899952965,2.4701828737413756,1.5749408920961332,-0.2271610585595229,-0.0678619935729156,1.9170671317132935,-0.2990327123167853,-0.27023144478689065,0.04067412583615373,-3.255122155153172,0.5260211392615263,1.125914057199011
3.312043795620438,0.014163151987744232,2.5078722853179984,1.569066283546429,-0.23234026698646615,-0.06679523675761395,1.8518413993912866,-0.28838758813599297,-0.24768171313278003,0.06571375297705752,-3.264900286984387,0.5381860658258351,1.1282162523324282
3.332116788321168,0.012841971289343172,2.5442562567733233,1.5634068869517255,-0.23706836072091647,-0.06524528101512214,1.786575118933022,-0.27751776394970085,-0.2251371563815912,0.08897774592463344,-3.2590786139500327,0.5484768524978063,1.1253641942661838
3.352189781021898,0.01155631924697943,2.579337136447529,1.5579668157692281,-0.24134648706062842,-0.06324861538713897,1.7215861877255394,-0.26646157979457574,-0.2027028019557548,0.11036846889565684,-3.237067007077541,0.5568077753954843,1.1171636471566184
3.372262773722628,0.010314748895315279,2.6131237486543313,1.552749399510634,-0.24517793269897398,-0.060843681631027706,1.6572043057353247,-0.255259090184923,-0.18048756199457305,0.1297882861069039,-3.1982753373943376,0.5630931106369199,1.103420375160072
3.3923357664233578,0.009125024906709134,2.6456316297325677,1.5477571494525768,-0.2485682014192798,-0.05807087421981615,1.5937709755083205,-0.24395206411268666,-0.15860423335422286,0.14713956177514975,-3.1421134759278497,0.567247134340156,1.0839401424328845
3.4124087591240877,0.007994084536902164,2.6768832640977926,1.542991724347075,-0.251525091789165,-0.054972540342196535,1.5316395021699167,-0.23258398504745093,-0.13716949760775293,0.1623246601171706,-3.0679912937055107,0.5691841226232364,1.058528713131397
3.4324817518248176,0.006927998570705093,2.7069083202938593,1.538453896131979,-0.2540587748548782,-0.051592979902525656,1.4711749934249563,-0.22120005093643824,-0.11630392104508658,0.17524594534974186,-2.9753186617547462,0.5688183516042087,1.02699185141195
3.4525547445255476,0.00593193226768482,2.735743887044514,1.5341435156414187,-0.25618187183563534,-0.04797844552082468,1.4127543595577332,-0.2098471742045096,-0.09613195467301902,0.18580578168963946,-2.863505451102981,0.5660640974011208,0.989135321430883
3.4726277372262775,0.005010106307851213,2.7634347093049825,1.5300594783162498,-0.257909531817957,-0.044177142532779386,1.356766313431995,-0.19857398175416652,-0.07678193421521975,0.19390653335363894,-2.7319615327776527,0.5608356361320155,0.944764887344538
3.4927007299270074,0.00416575773734375,2.7900334243135623,1.526199689914502,-0.2592595094500058,-0.04023922898973992,1.303611370490934,-0.18743081496554903,-0.058386080112230315,0.1994505645585161,-2.5800967778061783,0.553047243914941,0.8936863133092532
3.5127737226277373,0.0034011009141182904,2.815600797643207,1.522561032221826,-0.260252242635924,-0.036216815658721056,1.2537018487572051,-0.17646972969643482,-0.04108049752146686,0.20234023952104663,-2.407321057215995,0.5426131968679426,0.8357053634813709
3.5328467153284673,0.0027172884536337235,2.8402059592531184,1.5191393287619401,-0.26091093023017087,-0.032163966022401846,1.2074618688329033,-0.16574449628224341,-0.02500517631721727,0.20247792245800633,-2.213044242034524,0.5294477711090684,0.77062780201723
3.552919708029197,0.0021143721745387387,2.8639266395403347,1.5159293105070781,-0.26126160973186013,-0.028136696279126086,1.1653273538995814,-0.1553105995360321,-0.010303991090643616,0.1997659775861708,-1.9966762032892023,0.5134652427563564,0.6982593930731726
3.572992700729927,0.001591264044358488,2.8868494053913194,1.5129245815884362,-0.26133323497909755,-0.024192975342901848,1.1277460297182431,-0.14522523874849536,0.0028752988502191296,0.19410676912231586,-1.7576268120074516,0.4945798879278618,0.6184059008055379
3.593065693430657,0.0011456971251813178,2.909069896233552,1.51011758500662,-0.2611577538433184,-0.02039272484340173,1.095177424629345,-0.13554732768796807,0.014381049480462899,0.18540266128321706,-1.495305939216701,0.47270598274162623,0.5308730893706659
3.613138686131387,0.0007741865193454894,2.9306930600871137,1.5074995683420926,-0.2607701859236246,-0.01679781912596294,1.0680928695527858,-0.12633749460042853,0.024057732058306497,0.17355601828565037,-1.2091234559443809,0.4477578033156968,0.4354667229248981
3.633211678832117,0.00047199031512586164,2.951833389616279,1.5050605494656208,-0.26020870024112275,-0.013472085251586994,1.0469754979879298,-0.11765808220948548,0.03174593312509519,0.1584692043463912,-0.8984892332179175,0.4196496257681197,0.3319925656245737
3.653284671532847,0.00023307053242062944,2.9726151581811053,1.5027892822487225,-0.25951469293326096,-0.010481302996940056,1.032320246013582,-0.10957314771639365,0.037282354505301325,0.14004458368221562,-0.5628131420647478,0.38829572621693487,0.220256381626035
3.673357664233577,5.0054068438010066e-05,2.993172655889019,1.500673222274115,-0.25873286494816683,-0.007893204854352638,1.024633852288004,-0.102148462800044,0.04049981330652386,0.11818452050989892,-0.20150505351227643,0.35361038078019824,0.1000639350856194
3.6934306569343067,-8.674817385361894e-05,3.013645031789905,1.4986991649563977,-0.2579078332924269,-0.00598725447138415,1.023212547932594,-0.09529945424983075,0.04200858459199295,0.06196366236933772,6.900970185850543e-05,0.33854737496925064,0.0888413508172169
3.7135036496350367,-0.00019872164343808418,3.034116497846861,1.4968605968346447,-0.25704693860449923,-0.005437027145925416,1.0242870676580809,-0.0885720768394699,0.04422605939970265,-0.006118640493280792,0.10597535566402459,0.3341319091436991,0.13239506311663862
3.7335766423357666,-0.0003129800165575296,3.0546300759021237,1.4951556699935478,-0.25613318695207526,-0.00619948955864892,1.0273959333669462,-0.08193647448448987,0.04728417496664471,-0.06932436348592998,0.20353738279464145,0.3293719532568784,0.17291695291402456
3.7536496350364965,-0.0004548093928164235,3.0752247975214937,1.4935824808675167,-0.25515036727400087,-0.008178253234377928,1.0323742851678666,-0.07539941195656642,0.05112298641319226,-0.1277678188308754,0.29295773962510013,0.32428001026416836,0.2104761772507034
3.7737226277372264,-0.0006475909647601529,3.0959364376026532,1.4921389930961184,-0.25408345357530676,-0.011279215942381016,1.039061316140156,-0.06896740396826055,0.05568393200054384,-0.18156331875038273,0.3744390746867382,0.31886858312096494,0.24514189316800017
3.7937956204379564,-0.0009128467427639303,3.1167975954345817,1.4908230425252638,-0.2529185772643915,-0.015410561696372099,1.0473002723337532,-0.06264671517302885,0.060909833130725274,-0.2308251754667177,0.4481840365109398,0.3131501747826659,0.27698325770724247
3.8138686131386863,-0.0012702852799216977,3.1378377757569558,1.4896323422083793,-0.2516429994902044,-0.020482760754510356,1.0569384527692198,-0.05644336016521856,0.06674489434658858,-0.27566770120214573,0.5143952736290671,0.3071372882046599,0.3060694279097553
3.8339416058394162,-0.0017378473969350346,3.1590834698195773,1.4885644874076016,-0.2502450834794302,-0.02640856961940033,1.067827209437751,-0.050363103480070934,0.07313470333181284,-0.3162052081789329,0.57327543457249,0.3008424263423377,0.33246956081686635
3.8540145985401457,-0.0023317519070020676,3.180558236441771,1.487616960594949,-0.2487142668736708,-0.03310303103809185,1.0798219473011645,-0.04441145959371762,0.08002623091090273,-0.3525520086193443,0.6250271678725708,0.29427809215110046,0.3562528134699013
3.8740875912408756,-0.0030665413407063667,3.202282783071813,1.4867871364535121,-0.2470410340666307,-0.040483474002080064,1.0927821242919065,-0.03859369292318407,0.08736783104919056,-0.3848224147456461,0.669853122060662,0.28745678858632473,0.37748834291018807
3.8941605839416056,-0.003955127670905862,3.2242750468463233,1.4860722868786278,-0.24521688854129878,-0.04846951374730539,1.106571251313054,-0.032914817826385286,0.09510924085283413,-0.41313073878010365,0.7079559456681641,0.28039101860341936,0.39624530617905096
3.9142335766423355,-0.005008838037621749,3.2465502756497018,1.4854695859790708,-0.24323432520713298,-0.05698305175415368,1.1210568922383044,-0.027379598602132467,0.10320158056881867,-0.43759129294498283,0.7395382872264056,0.27309328515776565,0.41259286031781806
3.9343065693430654,-0.006237460472927384,3.2691211091735184,1.4849761150782255,-0.24108680273724292,-0.06594827574745597,1.1361106639119898,-0.021992549490123914,0.11159735358495508,-0.4583183894625488,0.7648027952667689,0.2655760912047626,0.42660016236781484
3.9543795620437954,-0.0076492896258372085,3.2919976599759435,1.4845888677152783,-0.2387687159055741,-0.07529165969648871,1.1516082361490654,-0.016757934670954815,0.1202504464298817,-0.4754263405550678,0.7839521183206288,0.25785193969980236,0.43833636937036835
3.9744525547445253,-0.009251172487195631,3.3151875945411486,1.4843047546463906,-0.2362753679240907,-0.0849419638149735,1.1674293317351137,-0.011679768266109697,0.12911612877306256,-0.4890294584448053,0.7971889049193412,0.24993333359827397,0.44787063836680474
3.9945255474452552,-0.011048554114565958,3.338696214338723,1.4841206088458871,-0.23360294277995933,-0.09483023456107746,1.183457726426348,-0.006761814337964869,0.1381510534247886,-0.49924205535402655,0.8047158035942745,0.24183277585557372,0.45527212639845044
4.014598540145985,-0.013045523357119244,3.362526536883088,1.4840331905074367,-0.23074847757273273,-0.1048898046374127,1.199581248949602,-0.002007586889791635,0.14731325633617723,-0.5061784435049979,0.8067354628767984,0.2335627694270943,0.46060999050663215
4.0346715328467155,-0.015244858580523319,3.38667937679291,1.484039192045233,-0.22770983485153296,-0.11505629299103706,1.2156917810023458,0.0025796501342497946,0.15656215659917253,-0.5099529351199843,0.8034505312982705,0.2251358172682234,0.4639533877326761
4.054744525547445,-0.017648073391831585,3.4111534268505035,1.4841352430951762,-0.22448567495223465,-0.1252676048134535,1.2316852572526675,0.006996882849104047,0.16585855644654512,-0.510679842421252,0.7950636573900662,0.21656442233436057,0.4653714751179088
4.074817518248175,-0.020255462364371965,3.4359453390612624,1.4843179155160602,-0.22107542833464935,-0.13546393154061034,1.2474616653392918,0.011241347428826265,0.1751646412518919,-0.5084734776310665,0.7817774896835439,0.2078610875808915,0.464933409703657
4.094890510948905,-0.02306614676263579,3.461049805713053,1.484583728390748,-0.21747926791970787,-0.14558775085290115,1.2629250458715635,0.015310530106578207,0.18444397952963656,-0.5034481529716935,0.763794676710075,0.19903831596321175,0.46270834853124704
4.114963503649635,-0.026078120267166712,3.4864596404356343,1.4849291530273563,-0.21369808142664432,-0.1555838266751648,1.277983492429457,0.019202167174629248,0.1936615229350291,-0.4957181806653984,0.7413178670010239,0.19010861043671667,0.4587654486420049
4.135036496350365,-0.02928829469944964,3.5121658592600773,1.4853506179604419,-0.20973344371017996,-0.16539920917668563,1.292549151563576,0.022914244984357346,0.20278360626414632,-0.48539787293444747,0.7145497090877622,0.1810844739567956,0.4531738670772577
4.155109489051095,-0.032692545746799584,3.5381577616781668,1.4858445139521768,-0.2055875890977058,-0.17498323477119304,1.3065382227951483,0.026444999946247494,0.21177794745389122,-0.47260154200110577,0.6836928515016458,0.17197840947884124,0.4460027608783318
4.175182481751825,-0.03628575868725063,3.564423011701817,1.4864071989935344,-0.20126338372646668,-0.1842875261168619,1.3198709586160298,0.02979291852989277,0.22061364758199353,-0.4574435000876387,0.6489499427740499,0.16280291995824703,0.4373212870865527
4.195255474452555,-0.04006187411444481,3.590947718922493,1.4870350033054742,-0.19676429788074487,-0.19326599211631254,1.332471664488709,0.032956737263995284,0.22926119086700955,-0.44003805941631313,0.6105236314363358,0.15357050835040553,0.4271986027432486
4.2153284671532845,-0.044013933662520974,3.6177165195706045,1.4877242343401145,-0.19209437832904253,-0.20187482791661016,1.3442686988462924,0.03593544273636334,0.23769244466832185,-0.42049953220939307,0.5686165660198688,0.14429367761070822,0.4157038648897442
4.235401459854015,-0.04813412573100376,3.6447126575749396,1.4884711817819272,-0.18725822066126668,-0.2100725149092657,1.3551944730925203,0.03872827159391401,0.24588065948613974,-0.39894223068914525,0.5234313950560194,0.13498493069454987,0.40290623056736696
4.255474452554744,-0.05241383120969252,3.671918065622065,1.489272122548911,-0.1822609416259116,-0.21781982073023523,1.365185451601759,0.041334710542671294,0.2538004689614992,-0.3754804670778349,0.47517076707615313,0.12565677055732105,0.38887485681744277
4.275547445255475,-0.05684366920355008,3.6993134462157347,1.4901233257937738,-0.17710815146724218,-0.22507979925992005,1.3741821517190014,0.043754496347768734,0.2614278898762623,-0.35022855359772775,0.4240373306116272,0.11632170015441368,0.3736789006812987
4.295620437956204,-0.06141354275759188,3.7268783527363203,1.4910210579051228,-0.1718059262624786,-0.23181779062316715,1.3821291437598682,0.04598761583344585,0.26874032215311816,-0.32330080247108983,0.370233734193822,0.10699222244122275,0.3573875192002609
4.315693430656935,-0.0661126845817746,3.7545912705002014,1.491961587508636,-0.16636078025897832,-0.23800142118926826,1.3889750510106067,0.04803430588305124,0.275716548855582,-0.2948115259201862,0.313962626354094,0.09768084037313951,0.3400698694156557
4.335766423357664,-0.07092970277588537,3.7824296978191936,1.4929411904682517,-0.16077963821142044,-0.24360060357196095,1.3946725497280945,0.049895053439041326,0.2823367361879958,-0.2648750361672825,0.2554266556238156,0.0884000569055583,0.3217951083688092
4.355839416058394,-0.07585262655443037,3.81037022705996,1.4939561548873492,-0.15506980771898932,-0.24858753662942784,1.399178369139833,0.05157059550297993,0.28858243349552803,-0.23360564543464518,0.1948284705343486,0.07916237499386947,0.3026323931010488
4.375912408759124,-0.08086895197152398,3.8383886257034097,1.4950027861099267,-0.14923895156255684,-0.25293670546429675,1.4024532914439496,0.05306191913553804,0.29443657326417355,-0.20111766594453875,0.13237071961705915,0.0699802975934658,0.28265088065370003
4.395985401459854,-0.08596568764577753,3.8664599174041303,1.4960774117217908,-0.14329506004186762,-0.2566248814236412,1.404462151809204,0.054370261456495816,0.2998834711207541,-0.1675254099192298,0.06825605140331614,0.060866327659741426,0.26191972806808994
4.416058394160584,-0.09112940048518837,3.8945584630497874,1.4971763865517336,-0.13724642331272105,-0.2596311220989796,1.4051738383749817,0.055497109644741305,0.3049088258329175,-0.13294318958098356,0.0026871144244804412,0.05183296814808713,0.24050809238554485
4.436131386861314,-0.09634626141202851,3.9226580418205375,1.498296097672713,-0.13110160372415536,-0.2619367713262759,1.404561292251292,0.056444200938269296,0.3094997193091382,-0.09748531715206521,-0.06413344278807376,0.042892722013895934,0.2184851306473907
4.456204379562044,-0.10160209108773396,3.9507319322484515,1.4994329694030444,-0.12486940815563133,-0.2635254591859393,1.4026015075187757,0.05721352263418267,0.3136446165987176,-0.06126610485474143,-0.13200297170298647,0.03405809221256151,0.19591999989495468
4.476277372262774,-0.10688240563779308,3.978752993276911,1.5005834683075698,-0.11855886035421502,-0.2643831020028246,1.3992755312286997,0.057807312088693386,0.31733336589178324,-0.02439986491127738,-0.20071882378888795,0.025341581699475757,0.17288185716956297
4.4963503649635035,-0.11217246237663588,4.006693745320033,1.501744108198849,-0.11217917327176188,-0.2644979023462313,1.3945684634029565,0.05822805671711939,0.32055719851928915,0.012999090456061901,-0.2700783505144164,0.01675569343003147,0.14943985951254163
4.516423357664234,-0.1174573055325229,4.03452645132208,1.5029114551383413,-0.1057397214021002,-0.2638603490299047,1.388469457034068,0.05847849399388816,0.3233087289530161,0.05081644902500981,-0.33987890334820303,0.008312930359620108,0.1256631639652178
4.536496350364963,-0.12272181197243387,4.062223197816868,1.5040821324375822,-0.09925001311821403,-0.26246321711203535,1.380971718085183,0.05856161145253391,0.3255819548055713,0.08893789857330126,-0.4099178337588789,2.5795443634901716e-05,0.10162092756891736
4.556569343065694,-0.12795073692695702,4.089755975987184,1.5052528256593702,-0.09271966300942715,-0.2603015678952588,1.3720725054900769,0.05848064668569919,0.3273722568303883,0.12724912687867063,-0.4799924932150841,-0.008093208362531357,0.07738230736496701
4.576642335766423,-0.13312875971517757,4.117096762724199,1.5064202876189503,-0.08615836421858664,-0.2573727489266566,1.3617731311531522,0.058239087345133944,0.32867639892172773,0.1656358217188516,-0.5499002331854408,-0.016031578103483657,0.053016460394693155
4.596715328467154,-0.13824052946956675,4.14421760168687,1.507581343385188,-0.07957586077924558,-0.2536763939977546,1.350078959949441,0.05784067114169711,0.329492528114676,0.2039836708715796,-0.6194384051386006,-0.02377681082383365,0.028592543699422157
4.616788321167883,-0.143270710860871,4.171090684361373,1.5087328952817631,-0.07298191995284764,-0.24921442314452502,1.3369994097245992,0.057289385845354035,0.3298201745851467,0.2421783621145881,-0.6884043605431831,-0.03131640356818721,0.004179714320480643
4.636861313868613,-0.14820402982300046,4.197688431120494,1.5098719278883412,-0.06638630456590958,-0.24399104264738464,1.3225479512949136,0.05658946928517872,0.32966025164987967,0.2801055832256121,-0.7565954508678248,-0.03863785338115022,-0.020152870700805264
4.656934306569343,-0.15302531927791824,4.223983572283056,1.5109955130417636,-0.05979874534720513,-0.23801274503119574,1.3067421084472954,0.05574540934935346,0.3290150557664411,0.3176510219823854,-0.8238090275811629,-0.045728657307331666,-0.04433605432310875
4.677007299270073,-0.15771956486052888,4.249949229173323,1.5121008148372244,-0.05322891326494868,-0.23128830906526618,1.2896034579392848,0.05476194398516654,0.327888266533224,0.3547003661626424,-0.8898424421518314,-0.052576312391340085,-0.0683006795051033
4.697080291970803,-0.16227195064356775,4.275558995180417,1.5131850946294552,-0.04668639186397819,-0.22382879976334888,1.2711576294990503,0.05364406119901699,0.32628494668944796,0.39113930354411774,-0.9544930460484613,-0.05916831567778047,-0.0919775892054629
4.717153284671533,-0.16666790486248972,4.300787016817734,1.5142457160339065,-0.04018064960293911,-0.21564756838364219,1.2514343058253847,0.052396999056409044,0.3242115421151587,0.42685352190454573,-1.0175581907396847,-0.06549216421126003,-0.11529762638286079
4.737226277372263,-0.17089314564035799,4.3256080747823455,1.5152801499279307,-0.033721012191467656,-0.2067602524287895,1.2304672225877082,0.051026245681955684,0.32167588183122886,0.4617287090216613,-1.0788352276941415,-0.07153535503638908,-0.13819163399597098
4.757299270072993,-0.1749337267127331,4.349997665014421,1.5162859794519619,-0.02731663492737444,-0.19718477564588002,1.2082941684260735,0.049537539259378205,0.3186871779993575,0.4956505526731978,-1.1381215083804639,-0.07728538519777395,-0.16059045500346636
4.7773722627737225,-0.17877608315256183,4.373932079756639,1.5172609050107013,-0.020976475033827727,-0.18694134802644768,1.184956984951155,0.04793686803150554,0.31525602592206997,0.5285047406368895,-1.1952143842672793,-0.0827297517400194,-0.18242493236402058
4.797445255474453,-0.1824070770950662,4.3973884886135925,1.5182027492742978,-0.014709263996536999,-0.1760524658064723,1.1605015667442564,0.046230470300274495,0.31139440404271856,0.5601769606904717,-1.2499112068232305,-0.08785595170773641,-0.20362590903630762
4.817518248175182,-0.18581404346263217,4.420345019611214,1.5191094621795285,-0.008523479900936416,-0.16454291146637845,1.1349778613573078,0.044424834426729065,0.3071156739454818,0.5905529006116783,-1.3020093275169424,-0.09265148214552887,-0.22412422797900108
4.837591240875913,-0.1889848356896986,4.442780840256175,1.5199791259309838,-0.002427319769368455,-0.15243975373103655,1.1084398693128694,0.042526698831022,0.3024345803553648,0.6195182481782437,-1.3513060978170568,-0.09710384009800777,-0.24385073215077394
4.857664233576642,-0.19190787144764626,4.464676238595305,1.5208099600022478,0.003571328101732933,-0.139772347569762,1.0809456441041276,0.0405430519924137,0.29736725113819934,0.6469586911679021,-1.3975988691922039,-0.10120052260977896,-0.2627362645103001
4.877737226277373,-0.19457217836968682,4.486012704275009,1.5216003261370814,0.009464911804658735,-0.12657233419631542,1.0525572921948916,0.03848113244927154,0.29193119730064343,0.672759917358388,-1.4406849931110175,-0.10492902672544946,-0.2807116680162531
4.897810218978102,-0.19696743977575137,4.506773009600666,1.522348733350603,0.01524624348324112,-0.11287364106890327,1.0233409730196055,0.03634842879907252,0.2861453129901821,0.6968076145274358,-1.4803618210421288,-0.10827684948962646,-0.2977077856273065
4.9178832116788325,-0.19908404039737976,4.526941290596058,1.523053842930472,0.020908526995670473,-0.09871248189017676,0.9933668989833349,0.03415267969839908,0.28002987549512637,0.7189874704527794,-1.5164267044541768,-0.11123148794691762,-0.31365546030213365
4.937956204379562,-0.20091311210260923,4.546503128062771,1.5237144734380714,0.02644538557731157,-0.08412735660723257,0.962709335461776,0.031901873862944186,0.2736065452446141,0.7391851729121537,-1.5486769948157932,-0.11378043914193237,-0.32848553499940825
4.958029197080292,-0.2024465796208635,4.565445628639608,1.524329605709688,0.03185088950352026,-0.06915905141161263,0.931446600801249,0.02960425006750622,0.2668983658086095,0.7572864096832932,-1.5769100435956105,-0.11591120011927591,-0.34212885267780413
4.978102189781022,-0.20367720626784147,4.583757505862012,1.524898387857696,0.03711958375245977,-0.05385063873930471,0.899661066318707,0.027268297145993436,0.2599297638979035,0.7731768685439318,-1.6009232022622655,-0.11761126792355603,-0.35451625629599437
4.998175182481752,-0.20459863967040626,4.601429161221466,1.5254201402717387,0.042246515667917615,-0.03824747727074118,0.8674391563017236,0.024902753991421056,0.25272654936411354,0.786742237271804,-1.620513822284392,-0.11886813959938103,-0.3655785888126528
5.018248175182482,-0.20520545749147423,4.618452765224912,1.5258943606199113,0.04722726262212185,-0.022397211930800243,0.834871348008507,0.022516609555911282,0.24531591519968352,0.797868203644644,-1.6354792551306179,-0.11966931219135651,-0.3752466931864529
5.038321167883212,-0.2054932131549036,4.634822338454163,1.5263207288499419,0.05205795967855768,-0.006349773888804783,0.8020521716678823,0.020119102850694848,0.23772643753788364,0.8064404554401864,-1.6456168522695789,-0.12000228274409044,-0.3834514123760683
5.0583941605839415,-0.2054584815703835,4.650533832625314,1.5266991121903746,0.05673532725478389,0.009842619441476241,0.7690802104793146,0.01771972294611146,0.22998807565281112,0.8123446804361659,-1.6507239651699206,-0.11985454830219343,-0.39012358934017244
5.078467153284672,-0.20509890485832305,4.665585211648155,1.5270295701517513,0.06125669878524962,0.026125464401828946,0.7360581006128877,0.015328208971607804,0.22213217195938934,0.815466566410316,-1.6505979453002595,-0.11921360591026772,-0.3951940670374388
5.098540145985401,-0.20441323807474,4.679976532685588,1.5273123595277942,0.06562004838411065,0.04244197108959416,0.7030925312093155,0.012954550115737318,0.21419145201336837,0.8156918011403717,-1.6450361441292398,-0.11806695261292482,-0.3985936884265413
5.118613138686132,-0.20340139493614967,4.693710027213029,1.5275479393965874,0.06982401850804608,0.0587330633576674,0.6702942443799378,0.010608985626162859,0.20620002451132463,0.812906072404067,-1.6338359131254907,-0.1164020854547696,-0.4002532964661531
5.138686131386861,-0.20206449354445394,4.706790182077832,1.5277369761217594,0.07386794761907471,0.0749373788144986,0.6377780352067237,0.008302004809654706,0.1981933812906613,0.8069950679791364,-1.6167946037576502,-0.11420650148041034,-0.4001037341149479
5.158759124087591,-0.20040490211183035,4.719223820558696,1.5278803483536647,0.07775189784737177,0.09099126882409286,0.6056627517422681,0.006044347032090114,0.190208397329608,0.7978444756433145,-1.5937095674943498,-0.1114676977344553,-0.39807584433159937
5.178832116788321,-0.19842628468562054,4.731020183425076,1.527979152030567,0.08147668265408534,0.10682879850600946,0.574071295009797,0.0038470017184562,0.18228333074722086,0.7853399831743353,-1.5643781558042198,-0.1081731712615095,-0.39410047007478083
5.198905109489051,-0.1961336468732195,4.742191009996599,1.5280347053798211,0.08504389449415284,0.12238174673536283,0.5431306190031551,0.0017212083528457267,0.1744578228033824,0.769367278349933,-1.5285977201559025,-0.10431041910618499,-0.3881084543031659
5.218978102189781,-0.19353338156696442,4.752750619202477,1.5280485539190538,0.0884559324791176,0.13757960614282155,0.512971730686826,-0.0003215435215391249,0.16677289789880204,0.7498120489478424,-1.4861656120180209,-0.09986693831308324,-0.3800306399754282
5.2390510948905105,-0.19063331466902358,4.762715990640915,1.5280224754573477,0.09171603003994543,0.1523495831146095,0.4837296899959096,-0.0022695143023898634,0.1592709635750153,0.726559982745798,-1.436879182859224,-0.09483022592681767,-0.3697978700502414
5.259124087591241,-0.18744275081628511,4.772106845638527,1.5279584850964225,0.09482828258984116,0.16661659779250487,0.4555436098361394,-0.004110714328288356,0.15199581051438443,0.6994967675215332,-1.3805357841481278,-0.08918777899199037,-0.3573409874862786
5.27919708029197,-0.18397251910524626,4.780945728309749,1.5278588402318172,0.09779767518706502,0.1803032840738404,0.4285566560838765,-0.005832903878709272,0.14499261254009843,0.6685080910527837,-1.3169327673533804,-0.08292709455321301,-0.342590835242214
5.299270072992701,-0.18023501881690182,4.789258086616251,1.5277260455540727,0.10063011019774937,0.19332998961150386,0.40291604758610466,-0.00742359317402097,0.13830792661617242,0.6334796411172834,-1.2458674839436163,-0.07603566965509101,-0.3254782562767208
5.31934306569343,-0.1762442651416335,4.797072353426347,1.5275628580499134,0.10333243495871516,0.2056147758139376,0.3787730561604441,-0.00887004237548128,0.1319896928474483,0.5942971054927656,-1.1671372853874455,-0.06850100134222803,-0.30593409354847245
5.339416058394161,-0.17201593490409836,4.804420027574411,1.5273722920034294,0.10591246944028837,0.2170734178451388,0.3562830065951279,-0.010159261585242163,0.1260872344795943,0.5508461719569655,-1.0805395231535257,-0.06031058665923883,-0.2838891900161425
5.35948905109489,-0.16756741228811833,4.811335754920286,1.5271576239972593,0.10837903390911666,0.2276194046246589,0.3356052766490287,-0.011278010846347719,0.12065125789910548,0.5030125282876178,-0.9858715487104917,-0.05145192265072662,-0.2592743886384048
5.37956204379562,-0.16291783456156844,4.817857409408703,1.5269223979137718,0.1107419765909858,0.23716393882760428,0.3169032970516441,-0.012212800142732183,0.11573385263330323,0.45068186226245677,-0.8829307135269655,-0.041912506361300395,-0.2320205323739329
5.39963503649635,-0.15808813780126618,4.824026174128685,1.5266704299362475,0.11301220133363626,0.24561593688463618,0.3003445515030978,-0.01294988939922359,0.11138849135033554,0.39373986165921615,-0.7715143690715855,-0.0316798348355638,-0.2020584641814
5.41970802919708,-0.15310110261786017,4.829886622372963,1.5264058135500618,0.11520169526957989,0.2528820289819702,0.2861005766741376,-0.013475288481543002,0.1076700298591767,0.33207221425563005,-0.6514198668129829,-0.020741405118130274,-0.16931902701947965
5.43978102189781,-0.14798139988071937,4.835486798697396,1.5261329245438673,0.11732355647891604,0.25886655906137707,0.27434696220614163,-0.013774757196302168,0.10463470710962783,0.26556460782943403,-0.5224445582197887,-0.009084714253599913,-0.1337330638468457
5.45985401459854,-0.1427556364428217,4.840878299980369,1.5258564260107748,0.11939202165214852,0.26347158482018174,0.26526335071111684,-0.013833805291004642,0.1023401451923165,0.194102730158362,-0.3843857947606537,0.003302740713412078,-0.09523141762217185
5.47992700729927,-0.13745240086564287,4.846116356482217,1.5255812733495362,0.1214224937530019,0.26659687771126384,0.2590334377716961,-0.013637692454047112,0.10084534933869678,0.11757226902014817,-0.2370409279041965,0.01643346273830204,-0.05374493130413138
5.5,-0.1321023091440456,4.851259912904635,1.5253127192657268,0.12343156968123815,0.26813992294305816,0.2558449719411413,-0.013171428314717404,0.10021070792104926,0.03585891219252679,-0.08020730911906071,0.03031995477646099,-0.009204447851397513
