time,pos_x,pos_y,pos_z,yaw,vel_x,vel_y,vel_z,vel_yaw,acc_x,acc_y,acc_z,acc_yaw
0.0,-2.9999999999999987,-2.999999999999999,1.4999999999999993,0.0,0.0,0.0,0.0,0.0,0.0,0.0,0.0,0.0
0.02005730659025788,-2.9999984897297,-2.9999807785831147,1.5000002896529558,-7.45476513617842e-07,0.00022564238401676356,0.002870767439137682,4.335291639836383e-05,-0.00011128378938140719,0.02238489763576289,0.28459202263742384,0.004316307089866036,-0.01102102766141951
0.04011461318051576,-2.9999880610771177,-2.999848213004,1.500002302052702,-5.878080091991851e-06,0.000888280551429289,0.011285151540611514,0.00017189707431831453,-0.00043658430649445276,0.04370249217176635,0.5544046405425737,0.008519332788064543,-0.02140353532848988
0.060171919770773644,-2.9999601864216703,-2.9994943696206304,1.5000077184512441,-1.9551186313015373e-05,0.0019667432701965344,0.024950142668333994,0.0003833793640695553,-0.0009632429047717158,0.06397026660432739,0.8096956995719824,0.012610328908474577,-0.031158698333167333
0.08022922636103152,-2.9999067580708174,-2.9988171234145327,1.5000181752887571,-4.566723288962464e-05,0.003440208968220885,0.04357788810336362,0.000675571712231253,-0.0016788244442849023,0.08320570392972751,1.0507230455821726,0.016590547264991193,-0.04029769200740815
0.1002865329512894,-2.9998200812668636,-2.997720054852441,1.5000352646943116,-8.788218980258112e-05,0.005288205733314407,0.06688569204387204,0.0010462710816684679,-0.002571117291744839,0.1014262871442731,1.277744524429663,0.020461239671498755,-0.048831691683168504
0.12034383954154729,-2.9996928671937546,-2.996112346747954,1.5000605349865965,-0.00014961002943325423,0.0074906113132272665,0.09459601560517428,0.0014932994715175004,-0.003628133320501481,0.11864949924425983,1.4910179819709886,0.02422365794188077,-0.056771872692404676
0.14040114613180515,-2.999518225983884,-2.9939086811231923,1.5000954911746465,-0.0002340271966964036,0.010027653115629961,0.12643647681971398,0.0020145039171954393,-0.004838107910543907,0.13489282322597984,1.69080126406267,0.02787905389003318,-0.06412941036707287
0.16045845272206305,-2.9992896597248966,-2.991029136070461,1.5001415954585702,-0.0003440770791729618,0.012879908208120436,0.16213985063706043,0.002607756490396607,-0.0061894999485003184,0.150173742085736,1.877352216561226,0.0314286793298368,-0.07091548003912938
0.18051575931232094,-2.9990010554664783,-2.9873990826138956,1.5002002677302688,-0.0004824744772428164,0.01602830331822097,0.2014440689239178,0.0032709542990930016,-0.007670991827638044,0.1645097388198205,2.0509286853231847,0.03487378607518221,-0.07714125704053038
0.2005730659025788,-2.99864667822717,-2.9829490815711304,1.5002728860741688,-0.0006517100742175928,0.019454114833383503,0.24409222046412077,0.004002019487533417,-0.009271489447863535,0.17791829642452722,2.2117885162050643,0.03821562593995824,-0.0828179167032321
0.22063037249283668,-2.9982211640011625,-2.97761478041495,1.5003607872679419,-0.0008540549064734376,0.023138968800982082,0.2898325509586308,0.004798899236246544,-0.01098012221572237,0.1904168978961607,2.3601895550634038,0.04145545073804932,-0.08795663435919084
0.24068767908309457,-2.9977195127651015,-2.9713368101349507,1.5004652672832357,-0.0010915648335837996,0.02706484092831819,0.3384184630255431,0.005659565762036762,-0.012786243044399258,0.2020230262310096,2.496389647754708,0.04459451228334693,-0.09256858534036279
0.26074498567335247,-2.997137081484886,-2.9640606820991926,1.5005875817863945,-0.0013660850084522115,0.03121405658261901,0.38960851620008174,0.0065820163179876635,-0.014679428353718011,0.21275416442537842,2.6206466401355146,0.04763406238973367,-0.09666494497870416
0.2808022922636103,-2.9964695771224714,-2.955736684915862,1.5007289466391882,-0.0016792543474450769,0.03556929079104,0.44316642693460445,0.007564273193458766,-0.016649478070141596,0.22262779547555767,2.733218378062343,0.0505753528711019,-0.10025688860617128
0.3008595988538682,-2.9957130496426716,-2.9463197812949273,1.500890538399537,-0.0020325100005244468,0.040113568240656566,0.4988610685985934,0.00860438371409036,-0.018686415626772084,0.2316614023778482,2.8343627073917177,0.05341963554133608,-0.10335559155472034
0.3209169054441261,-2.99486388501996,-2.9357695049097936,1.5010734948222357,-0.0024270918213808073,0.04483026327847571,0.5564664714786667,0.009700420241797767,-0.020780487963350667,0.23987246812854507,2.9243374739801653,0.05616816221432447,-0.10597222915630755
0.340974212034384,-2.9939187982452675,-2.924049857258964,1.5012789153596806,-0.002864046837565855,0.049703099911429995,0.615761822778571,0.010850480174774163,-0.022922165526257678,0.24727847572394113,3.003400523684203,0.05882218470395778,-0.10811797674288917
0.3610315186246419,-2.9928748263327907,-2.9111292045276937,1.5015078616625943,-0.003344233720625292,0.054716151806373695,0.6765314666191826,0.012052685947492592,-0.02510214226851257,0.2538969081603438,3.0718097023603623,0.06138295482411765,-0.10980400964642135
0.38108882521489973,-2.9917293213267904,-2.8969801744496535,1.5017613580807536,-0.0038683272562315928,0.05985384229009161,0.7385649040385093,0.013305185030702132,-0.027311335649773918,0.2597452484340371,3.129822855865162,0.06385172438869874,-0.1110415031988605
0.4011461318051576,-2.990479943308386,-2.8815795531685757,1.5020403921637089,-0.0044368228143168015,0.0651009443492927,0.8016567929916903,0.014606149931429287,-0.02954088663633942,0.26484097954132557,3.1776978300551293,0.06622974521158315,-0.11184163273216267
0.4212034383954155,-2.9891246534023717,-2.8649081820999256,1.5023459151615186,-0.005050040819205301,0.07044258063061064,0.8656069483509925,0.01595377819297994,-0.03178215970114588,0.26920158447850284,3.2156924707867844,0.06851826910666131,-0.11221557357828424
0.44126074498567336,-2.9876617067840066,-2.846950854792548,1.5026788425254676,-0.00570813121974661,0.07586422344060703,0.9302203419058164,0.017346292394936416,-0.034026742823769295,0.2728445462418678,3.2440646239166573,0.07071854788781962,-0.11217450106918139
0.46131805157593125,-2.9860896456858166,-2.827696213790328,1.5030400544087947,-0.006411077959448145,0.08135169474576798,0.9953071023626902,0.01878194015315951,-0.036266447490424694,0.27578734782771475,3.2630721353012673,0.07283183336894605,-0.11172959053681034
0.48137535816618915,-2.984407292404401,-2.8071366474938504,1.5034303961674198,-0.0071587034466080324,0.08689116617250783,1.0606825153452764,0.020258994119786516,-0.03849330869396631,0.27804747223234105,3.2729728507971414,0.07485937736392889,-0.11089201731312738
0.501432664756447,-2.9826137423072323,-2.7852681870220555,1.503850678860668,-0.007950673024447854,0.09246915900716304,1.1261670233943621,0.021775751983234434,-0.04069958493388742,0.2796424024520463,3.274024616260802,0.0768024316866538,-0.10967295673008864
0.5214899713467049,-2.9807083568394557,-2.7620904030738953,1.5043016797519955,-0.008786499441245467,0.0980725441959985,1.19158622596787,0.023330536468197022,-0.04287775821632052,0.28058962148312294,3.2664852775487727,0.07866224815101108,-0.1080835841196505
0.5415472779369628,-2.9786907565306913,-2.7376063027899913,1.504784142809715,-0.009665547320467757,0.10368854234520553,1.2567708794408514,0.0249216953356452,-0.045020534054037165,0.280906612321868,3.250612680517576,0.08044007857088775,-0.10613507481376902
0.5616045845272206,-2.9765608140018402,-2.711822226614299,1.5052987792077228,-0.010587037630903441,0.10930472372089972,1.321556897105489,0.026547601382828495,-0.047120841466448043,0.28061085796458185,3.226664671023743,0.08213717476016957,-0.10383860414440067
0.5816618911174786,-2.974318646971874,-2.6847477451557475,1.5058462678262197,-0.011550052156795831,0.11490900824912414,1.3857853491710936,0.02820665244327386,-0.04917183297960297,0.2797198414075599,3.194899094923791,0.0837547885327451,-0.10120534744350143
0.6017191977077364,-2.9719646112646534,-2.6563955560499197,1.5064272557524436,-0.012553537967975637,0.12048966551584583,1.4493024627641102,0.029897271386786217,-0.05116688462619094,0.27825104564709746,3.1555737980742453,0.08529417170250242,-0.09824648004302769
0.6217765042979944,-2.9694992938157134,-2.6267813808206917,1.5070423587813886,-0.013596311889993738,0.12603531476695984,1.51195962192811,0.03161790611944795,-0.053099595945539965,0.2762219536794912,3.108946626331633,0.08675657608332932,-0.0949731772749357
0.6418338108882522,-2.966923505679076,-2.5959238617418987,1.5076921619165344,-0.014677064974253948,0.13153492490828617,1.5736133676237982,0.03336702958361934,-0.054963789983617284,0.2736500485010369,3.0552754255524732,0.08814325348911389,-0.09139661447118164
0.66189111747851,-2.9642382750340457,-2.563844458698992,1.5083772198705714,-0.015794366968145856,0.13697781450557123,1.6341253977290098,0.03514313975793806,-0.05675351329302922,0.27055281310803414,2.9948180415932946,0.08945545573374225,-0.08752796696372175
0.681948424068768,-2.96144484019201,-2.5305673460506894,1.509098057566122,-0.016946670785177514,0.14235365178448628,1.6933625670387071,0.03694475965732033,-0.05846303593302116,0.2669477304967789,2.927832320310618,0.09069443463110227,-0.0833784100845122
0.7020057306590258,-2.9585446426032536,-2.4961193094906484,1.5098551706364758,-0.018132316975108326,0.14765245463062954,1.751196887264988,0.038770437332959595,-0.06008685146947776,0.26285228366356517,2.8545761075609706,0.09186144199508328,-0.07895911916550946
0.7220630372492838,-2.9555393198637354,-2.4605296429091,1.5106490259263015,-0.019349538194081736,0.15286459058952456,1.8075055270370761,0.040618745872327,-0.06161967697492263,0.2582839556046921,2.775307249200871,0.09295772963957094,-0.07428126953866945
0.7421203438395416,-2.9524306987219195,-2.423830045254531,1.5114800619923878,-0.0205964636747581,0.1579807768666216,1.8621708119013294,0.042488283399171656,-0.06305645302851863,0.253260229316457,2.69028359108685,0.09398454937845369,-0.06935603653594861
0.7621776504297995,-2.9492207880855497,-2.386054517395324,1.5123486896043552,-0.021871123696447364,0.1629920803272955,1.9150802243212341,0.04437767307352053,-0.06439234371606775,0.24779858779515473,2.599762979075428,0.09494315302561929,-0.06419459548930317
0.7822349570200574,-2.94591177202847,-2.3472392589814213,1.5132552922453901,-0.023171454055241958,0.16788991749684912,1.9661264036774075,0.04628556309167764,-0.06562273663001099,0.24191651403708203,2.5040032590231274,0.09583479239495563,-0.05880812173068928
0.8022922636103152,-2.9425060027974173,-2.3074225653059828,1.514200226612968,-0.02449530053414949,0.17266605456050887,2.015207146267597,0.04821062668622583,-0.06674324286942857,0.23563149103853798,2.403262276786479,0.09666071930034859,-0.05320779059206327
0.8223495702005731,-2.9390059938188227,-2.266644724167039,1.515183823119577,-0.025840423373225584,0.17731260736342935,2.062225405306681,0.05015156212602462,-0.0677496970400398,0.22896100179581702,2.297797878221998,0.09742218555568827,-0.04740477740538126
0.842406876790831,-2.9354144127056205,-2.2249479127291583,1.516206386393448,-0.027204501739706632,0.18182204141068958,2.1070892909266687,0.052107092716212056,-0.06863815725420315,0.2219225293052165,2.1878679091862154,0.09812044297486056,-0.04141025750259962
0.8624641833810889,-2.931734074264035,-2.182376094385087,1.5172681957792737,-0.028585138198142564,0.18618717186729383,2.1497120701766974,0.054075966798204034,-0.06940490513091617,0.2145335565630324,2.07373021553565,0.09875674337175422,-0.035235406215674406
0.8825214899713467,-2.927967933500402,-2.1389749156174296,1.5183695058389426,-0.029979863180529715,0.1904011635581756,2.19001216702304,0.05605695774969299,-0.07004644579581557,0.2068115665655621,1.9556426431268301,0.09933233856025603,-0.028891398876562058
0.9025787965616047,-2.92411907862795,-2.0947916028602824,1.5195105468522547,-0.03138613945644347,0.19445753096819018,2.2279131623490933,0.058048863984650756,-0.07055950788117712,0.19877404230910223,1.8338630378162792,0.09984848035425409,-0.022389410817218708
0.9226361031518625,-2.9201907240736173,-2.0498748593609117,1.5206915253176563,-0.03280136660317117,0.198350138242121,2.263343793955389,0.06005050895332592,-0.07094104352591579,0.1904384667899497,1.7086492454605196,0.10030642056763606,-0.015740617369600637
0.9426934097421205,-2.9161862034848434,-2.004274762041396,1.5219126244529593,-0.03422288547584483,0.20207319918467848,2.296237956559589,0.0620607411422448,-0.0711882283755857,0.18182232300440226,1.5802591119160767,0.1007074110142887,-0.008956193865664028
0.9627507163323783,-2.9121089627363763,-1.9580426583602908,1.523174004696069,-0.03564798267757395,0.20562127726049662,2.3265347017964837,0.06407843407421188,-0.07129846158237993,0.17294309394875373,1.4489504830394722,0.10105270350810103,-0.0020473156373650714
0.9828080229226361,-2.9079625529370743,-1.9112310631742877,1.524475804205712,-0.03707389502957828,0.208989285594137,2.3541782382179983,0.06610248630830895,-0.07126936580513094,0.16381826261930277,1.3149812046872325,0.10134354986295979,0.004974841983339896
1.002865329512894,-2.9037506234366983,-1.8638935555998621,1.5258181393621548,-0.03849781404132057,0.21217248697008584,2.3791179312931803,0.06813182143989616,-0.07109878720931004,0.1544653120123467,1.1786091227158828,0.10158120189275222,0.012099103664494605
1.022922636103152,-2.899476914832728,-1.8160846758749434,1.5272011052679386,-0.03991689038063947,0.215166493832756,2.4013083034082165,0.07016538810061135,-0.07078479546702787,0.14490172512417887,1.0400920829819431,0.10176691141136796,0.019314294074142938
1.0429799426934099,-2.895145251977149,-1.7678598222205602,1.5286247762485954,-0.04132823834388212,0.21796726828648705,2.4207090338664172,0.07220215995836898,-0.07032568375703405,0.1351449849511006,0.8996879313419393,0.101901930232692,0.026609237880328672
1.0630372492836677,-2.8907595369832686,-1.719275147702511,1.5300892063533844,-0.0427289403260372,0.22057112209554242,2.4372849588882297,0.07424113571736302,-0.0697199687647175,0.12521257448940748,0.7576545136524007,0.1019875101706127,0.03397275975109537
1.0830945558739256,-2.8863237422325003,-1.6703874570930048,1.5315944298560047,-0.04411605129086738,0.22297471668411406,2.4510060716112263,0.07628133911806367,-0.06896639068210607,0.11512197673539282,0.6142496757698421,0.10202490303901923,0.04139368435448704
1.1031518624641834,-2.881841903381181,-1.6212541037323367,1.5331404617553328,-0.04548660324104244,0.2251750631363183,2.461847522090113,0.07832181893721935,-0.06806391320786687,0.10489067468535573,0.4697312635507924,0.10201536065179861,0.04886083635854731
1.1232091690544412,-2.877318112367365,-1.5719328863905309,1.53472729827614,-0.04683760968827178,0.22716952219619668,2.4697896172967253,0.08036164898785736,-0.06701172354730611,0.09453615133559357,0.3243571228517766,0.10196013482283695,0.05636304043131998
1.1432664756446993,-2.8727565104176245,-1.5224819461290047,1.536354917369822,-0.04816607012343738,0.2289558042677191,2.4748178211200282,0.08239992811928065,-0.06580923241236905,0.08407588968240098,0.17838509952931594,0.10186047736602366,0.06388912124084882
1.1633237822349571,-2.868161281053856,-1.4729596631622264,1.5380232792151238,-0.04946897448672648,0.23053196941477871,2.4769227543661185,0.08443578021707188,-0.06445607402164016,0.07352737272207666,0.032073039439936654,0.10171764009524575,0.07142790345517755
1.183381088825215,-2.8635366431000735,-1.4234245537193684,1.539732326718863,-0.05074330763776438,0.23189642736119676,2.4761001947582226,0.08646835420308996,-0.06295210610034299,0.06290808345091703,-0.1143212115598366,0.10153287482439,0.07896821174234997
1.2034383954154728,-2.8588868436892225,-1.373935166905969,1.541481986016659,-0.051986053825747336,0.2330479374907184,2.472351076936699,0.08849682403547265,-0.061297409880340215,0.05223550486521766,-0.2605398076134845,0.10130743336734538,0.08649887077040995
1.2234957020057307,-2.854216151269968,-1.324549981565589,1.5432721669736567,-0.05319420115957516,0.2339856088470167,2.465681492459035,0.0905203887086351,-0.05949229010013371,0.04152711996127634,-0.4063249028644764,0.1010425675379989,0.09400870520740101
1.2435530085959887,-2.849528848613508,-1.2753273031414663,1.5451027636852506,-0.05436474607798413,0.23470890013368972,2.456102689799848,0.09253827225327005,-0.05753727500486436,0.030800411735389943,-0.5514186514562917,0.10073952915023776,0.1014865397213671
1.2636103151862466,-2.844829225820364,-1.2263251605381753,1.5469736549778133,-0.0554946978196797,0.23521761971426147,2.443631074350888,0.09454972373634773,-0.05543311634631225,0.02007286318385315,-0.6955632075324065,0.10039957001795119,0.10892119898035187
1.2836676217765044,-2.840121573327191,-1.1776012029832852,1.5488847049094188,-0.05658108289346937,0.23551192561218182,2.428288208421033,0.09655401726111701,-0.053180789382896526,0.009361957302965518,-0.8385007252362957,0.1000239419550244,0.11630150765239922
1.3037249283667622,-2.8354101749135743,-1.129212596889015,1.5508357632705692,-0.05762094954839539,0.23559232551082676,2.410100811236294,0.09855045196710388,-0.05078149287967556,-0.001314822910978286,-0.9799733587114338,0.09961389677534682,0.12361629040555272
1.32378223495702,-2.830699300708833,-1.081215922713893,1.5528266660849197,-0.05861137224386754,0.23545967675349755,2.389100758939811,0.10053835203011174,-0.04823664910834676,-0.011939994461681813,-1.119723262101303,0.0991706862928059,0.13085437190785634
1.3438395415472781,-2.825993200198821,-1.0336670718244134,1.5548572361100041,-0.059549456119795986,0.23511518634342288,2.365325084591854,0.10251706666222304,-0.04554790384724664,-0.022496074352847728,-1.2574925895493732,0.09869556232128951,0.13800457682735381
1.363896848137536,-2.8212960952327286,-0.9866211433566937,1.556927283337961,-0.06043234146672397,0.23456041094375601,2.3388159781698237,0.10448597011179617,-0.04271712638135097,-0.03296557958817825,-1.393023495199121,0.09818977667468376,0.14505572983208873
1.3839541547277938,-2.816612173029883,-0.9401323410781321,1.5590366054962597,-0.06125720819596067,0.23379725687757635,2.3096207865682543,0.10644446166346899,-0.03974640950227456,-0.043331027171376935,-1.526058133194025,0.09765458116687697,0.15199665559010508
1.4040114613180517,-2.8119455791865513,-0.8942538702490646,1.5611849885484232,-0.06202128030971396,0.23282798012789052,2.2777920135988063,0.10839196563815601,-0.0366380695082713,-0.05357493410614822,-1.6563386576775594,0.0970912276117577,0.15881617876944648
1.4240687679083095,-2.80730041068274,-0.8490378344844222,1.563372207194757,-0.06272183037122316,0.23165518633762883,2.243387319990271,0.11032793139304964,-0.03339464620423424,-0.0636798173961961,-1.783607222793199,0.09650096782321338,0.16550312403815667
1.4441260744985676,-2.8026807088889996,-0.8045351326153897,1.5655980253730728,-0.06335618397489184,0.2302818308096497,2.2064695233885745,0.11225183332162092,-0.030018902901695614,-0.07362819404522236,-1.9076059826844214,0.095885053615131,0.17204631606427948
1.4641833810888254,-2.7980904525732226,-0.7607953555510616,1.5678621967594144,-0.06392172421642064,0.22871121850673548,2.167106598356767,0.11416317085361705,-0.026513826418826686,-0.08340258105692966,-2.028077091494703,0.095244736801398,0.17843457951585878
1.4842406876790832,-2.7935335509074477,-0.7178666831401003,1.5701644652687836,-0.06441589616293998,0.22694700405159596,2.1253716763750354,0.11606146845506493,-0.022882627080437923,-0.09298549543502332,-2.1447627033675185,0.0945812691959027,0.1846567390609381
1.504297994269341,-2.7890138364746586,-0.675795781032392,1.5725045655558652,-0.06483621132314288,0.22499319172686727,2.081343045840693,0.11794627562826765,-0.019128738717978832,-0.10235945418320469,-2.2574049724463454,0.09389590261253211,0.19070161936756144
1.524355300859599,-2.7845350582755883,-0.6346276975407079,1.5748822235157527,-0.06518025211741778,0.22285413547510924,2.035104152068185,0.11981716691180622,-0.01525581866953818,-0.11150697430517753,-2.365746052874657,0.09318988886517388,0.19655804510377242
1.5444126074498568,-2.78010087473552,-0.5944057605023569,1.5772971567846752,-0.06544567634798126,0.2205345388988098,1.9867435972890868,0.1216737418805407,-0.011267747779843747,-0.12041057280464784,-2.4695280987959323,0.09246447976771721,0.2022148409376148
1.5644699140401148,-2.775714846711086,-0.5551714741408456,1.5797490752407197,-0.06563022166901081,0.21803945526038282,1.9363551406521051,0.12351562514560688,-0.007168630400262423,-0.12905276668531473,-2.5684932643536444,0.09172092713404734,0.2076608315371324
1.5845272206303727,-2.771380430497072,-0.5169644159275347,1.5822376815045607,-0.06573171005677772,0.21537428748216492,1.884037698223075,0.12534246635442026,-0.00296279438880033,-0.13741607295088376,-2.6623837036912708,0.09096048277805358,0.21288484157036894
1.6045845272206305,-2.767100970833218,-0.4798221334432979,1.5847626714401826,-0.06574805227977977,0.21254478814642264,1.8298953429849651,0.12715394019067272,0.0013452088898974063,-0.14548300860505803,-2.7509415709522864,0.09018439851362259,0.21787569570536822
1.6246418338108883,-2.7628796939110196,-0.44378004124017756,1.5873237346556066,-0.065677252368874,0.2095570594953471,1.7740373048378715,0.12894974637433476,0.005750604564546458,-0.15323609065154065,-2.8339090202801698,0.08939392615464226,0.22262221861017406
1.6446991404011462,-2.758719700380528,-0.4088713177030426,1.5899205550036166,-0.06551741208740959,0.20641755343105395,1.716577970599022,0.13072960966165414,0.010248394257223414,-0.1606578360940355,-2.9110282058183943,0.08859031751500102,0.22711323495283012
1.6647564469914042,-2.7546239583571537,-0.3751268019112472,1.5925528110824838,-0.06526673540136049,0.20313307151558835,1.6576368840027762,0.13249327984515613,0.014833356083365667,-0.16773076193624514,-2.9820412817104356,0.08777482440858586,0.23133756940138012
1.684813753581662,-2.7505952964284677,-0.34257489050028594,1.5952201767366925,-0.06492353294945838,0.19971076497091467,1.5973387457006225,0.13424053175364503,0.019500044651771537,-0.17443738518187346,-3.046690402099773,0.0869486986492845,0.23528404662386798
1.70487106017192,-2.7466363966610015,-0.3112414345234526,1.5979223215576663,-0.06448622651332533,0.19615813467893162,1.53581341326118,0.13597116525220088,0.02424279106460026,-0.18076022283462356,-3.104717721129877,0.08611319205098467,0.2389414912883373
1.7249283667621778,-2.7427497876070497,-0.28114963631349726,1.6006589113844931,-0.06395335348760661,0.19248303118145804,1.4731959011701992,0.13768500524218363,0.02905570291737186,-0.1866817918981985,-3.155865392944228,0.08526955642757317,0.24229872806283198
1.7449856733524356,-2.738937837311471,-0.2523199463442839,1.6034296088046507,-0.06332357135010351,0.18869365468024002,1.4096263808305596,0.13938190166122943,0.03393266429896731,-0.1921846093763011,-3.199875571686302,0.08441904359293798,0.24534458161539582
1.7650429799426934,-2.7352027463184894,-0.22476996009244754,1.6062340736547318,-0.06259566213190602,0.1847985550369513,1.345250180562273,0.14106172948325213,0.03886733579162843,-0.19725119227263632,-3.2364904114995725,0.08356290536096794,0.24806787661407242
1.7851002865329515,-2.731546540678498,-0.19851431489905108,1.6090719635211714,-0.06176853688752576,0.1808066317731889,1.2802177856024781,0.14272438871844484,0.04385315447095799,-0.2018640575909058,-3.2654520665275166,0.08270239354555002,0.25045743772690565
1.8051575931232093,-2.7279710649548568,-0.1735645868312446,1.6119429342409703,-0.06084124016502867,0.17672713407047702,1.2146848381054502,0.14436980441327685,0.04888333390591939,-0.2060057223348133,-3.2865026909136095,0.08183875996057038,0.2525020896219392
1.8252148997134672,-2.724477975230698,-0.14992918754392026,1.6148466404024218,-0.0598129544761678,0.17256966077026714,1.1488121371425897,0.1459979266504965,0.053950864158837174,-0.20965870350806304,-3.2993844388013285,0.08097325641991909,0.2541906569672169
1.845272206303725,-2.7210687321157225,-0.12761326114137128,1.617782735845836,-0.0586830047665161,0.16834416037393485,1.08276563870243,0.1476087305491285,0.05904851178539664,-0.2128055181143571,-3.303839464334148,0.0801071347374821,0.2555119644307825
1.8653295128939829,-2.717744593753008,-0.10661858103894892,1.620750874164268,-0.05745086288559921,0.16406093104278074,1.0167164556906336,0.1492022162644766,0.064168819834644,-0.21542868315739905,-3.299609921655546,0.07924164672714717,0.2564548366806798
1.885386819484241,-2.714506608825804,-0.0869434468247199,1.6237507092042403,-0.05611615205702823,0.15973062059803533,0.9508408579299945,0.15077840898812123,0.06930410784898632,-0.21751071564089264,-3.2864379649089965,0.07837804420280203,0.2570080983849525
1.9054441260744988,-2.711355609564338,-0.06858258112112357,1.6267818955664701,-0.05467865134863253,0.1553642265208519,0.8853202721604368,0.1523373589479209,0.07444647186419155,-0.21903413256853943,-3.264065748237976,0.07751757897833467,0.25716057421164434
1.9255014326647566,-2.7082922047526146,-0.051527026446629556,1.6298440891065953,-0.053138300142592465,0.1509730959523088,0.8203412820390147,0.15387914140801273,0.07958778440938859,-0.21998145094404498,-3.23223542578596,0.0766615028676324,0.25690108882879925
1.9455587392550144,-2.7053167727352174,-0.03576404207739556,1.6329369474358986,-0.05149520260557228,0.14656892569341284,0.7560956281399146,0.1554038566688105,0.08471969450706696,-0.22033518777111372,-3.190689151696426,0.07581106768458445,0.2562184669044607
1.9656160458452723,-2.7024294544241103,-0.021277000908923663,1.6360601304220337,-0.049749632158852766,0.14216376220509552,0.6927802079544513,0.1569116300670066,0.08983362767307734,-0.22007786005344432,-3.1391690801128482,0.07496752524307593,0.2551015331066728
1.9856733524355303,-2.6996301463054393,-0.00804528631771853,1.639213300689751,-0.047902035948464095,0.13777000160821506,0.6305970758910712,0.1584026119755697,0.09492078591663117,-0.219191984794743,-3.0774173651787033,0.07413212735699526,0.253539112103479
2.005730659025788,-2.6969184934463355,0.0039558109770553365,1.6423961241216234,-0.04595303931531861,0.1334003896835534,0.5697534432753506,0.15987697780374877,0.09997214774030072,-0.21766007899871553,-3.0051761610374674,0.0733061258402321,0.25152002856292327
2.025787965616046,-2.694293882501713,0.014755196051916324,1.6456082703587713,-0.0439034502653436,0.12906802187182342,0.5104616783499968,0.1613349279970675,0.10497846814001931,-0.21546465966906236,-2.9221876218326175,0.07249077250667257,0.24903310715304927
2.045845272206304,-2.691755434721074,0.024386072917408283,1.6488494133015887,-0.04175426393961408,0.12478634327365778,0.452939306274847,0.1627766880373296,0.10993027860508087,-0.21258824380948482,-2.828193901707626,0.0716873191702021,0.2460671725419009
2.0659025787965617,-2.6893019989553077,0.03288604765644309,1.6521192316104678,-0.039506667084485574,0.12056914864961943,0.3974090091268695,0.1642025084426153,0.11481788711814045,-0.20901334842368868,-2.722937154805973,0.07089701764471013,0.24261104939752173
2.0859598853868198,-2.686932144663494,0.040297231562643365,1.6554174092065257,-0.03716204252172687,0.11643058242019433,0.34409862590016205,0.1656126647672833,0.11963137815521388,-0.20472249051537794,-2.6061595352711313,0.07012111974408564,0.2386535623879557
2.1060171919770774,-2.684644154919702,0.046666344278684734,1.6587436357723289,-0.03472197361865292,0.11238513866579525,0.2932411525059551,0.16700745760197067,0.12436061268567776,-0.1996981870882557,-2.477603197246579,0.06936087728221585,0.23418353618124643
2.1260744985673354,-2.6824360194197956,0.05204481693463904,1.6620976072526203,-0.03218824875825743,0.10844766112676463,0.2450747417726072,0.1683872125735898,0.12899522817226977,-0.1939229551460233,-2.3370102948757916,0.06861754207298709,0.22918979544543783
2.1461318051575935,-2.68030542748823,0.05648889528631643,1.6654790263550432,-0.029562865809345806,0.10463334320336504,0.19984270344560856,0.16975228034533318,0.13352463857108823,-0.18737931169238387,-2.184122982302244,0.06789236593028614,0.2236611648485735
2.166189111747851,-2.6782497610848575,0.06005974285360824,1.6688876030508675,-0.02684803659666786,0.10095772795578672,0.15779350418757937,0.1711030366166706,0.1379380343315926,-0.18004977373104314,-2.018683413669413,0.06718660066800419,0.2175864690586973
2.186246418338109,-2.6762660878117277,0.06282354405882948,1.6723230550757153,-0.024046191371050598,0.0974367081041494,0.11918076757827077,0.17243988212334882,0.142224382396603,-0.17191685826570602,-1.8404337431207742,0.06650149810002626,0.21095453274385306
2.206303724928367,-2.6743511539198876,0.0648516073650615,1.6757851084302868,-0.021159983279531024,0.09408652602849399,0.08426327411456404,0.17376324263739307,0.14637242620230054,-0.16296308230007384,-1.6491161247998043,0.06583831004024132,0.2037541805720844
2.226361031518625,-2.6725013773161836,0.06622046841449457,1.6792734978810853,-0.018192292835488875,0.09092377376879057,0.053304961210470646,0.17507356896710558,0.15037068567822723,-0.15317096283784348,-1.4444727128499752,0.06519828830253349,0.1959742372114351
2.2464183381088825,-2.6707128405700655,0.06701199316677046,1.6827879674611426,-0.015146232388779546,0.08796539302493256,0.026574923197133848,0.1763713369570673,0.15420745724728574,-0.14252301688272873,-1.2262456614147692,0.0645826847007962,0.18760352732994895
2.2664756446991405,-2.668981283920384,0.0673134810373252,1.6863282709707448,-0.012025150595866667,0.0852286751567416,0.00434741132282597,0.17765704748813688,0.1578708138257399,-0.1310017614384229,-0.9941771246376592,0.06399275104890911,0.1786308755956698
2.2865329512893986,-2.6673020982821956,0.06721776803573147,1.6898941724781593,-0.008832636889955012,0.08273126118396429,-0.013098166247049622,0.17893122647744936,0.1613486048232142,-0.11858971350863712,-0.7480092566621218,0.06342973916076744,0.16904510667664152
2.306590257879656,-2.665670318253561,0.0668233299040414,1.6934854468203573,-0.005572525951123259,0.08049114178627556,-0.02547724442995921,0.18019442487841802,0.1646284561426942,-0.1052693900970727,-0.4874842116316319,0.06289490085025662,0.15883504524090758
2.3266475644699143,-2.664080615122349,0.06623438525512905,1.6971018801037414,-0.002248902176456763,0.07852665730327024,-0.03250010122623841,0.1814472186807355,0.1676977701805261,-0.09102330820743454,-0.21234414368966603,0.06238948793126475,0.14798951595651177
2.346704871060172,-2.6625267263379384,0.06556046459185354,1.7007431637772774,0.0011338823623328915,0.07710969333213724,-0.03411278740202497,0.18264237664289895,0.17053768955601498,-0.00011231149751898524,0.00504413429862043,0.047601141493535885,0.13470632630816454
2.36676217765043,-2.6609687043652364,0.06488426149539371,1.7044026926360152,0.00457045011413605,0.0794752592004739,-0.03325828901608385,0.183170198667128,0.17306306600008825,0.2347175826909267,0.07981508375783025,0.005507442755746307,0.11790038107423956
2.386819484240688,-2.6593171823071615,0.06423986728942765,1.7080644892186354,0.008054191772993694,0.0864210070994054,-0.03094361265358948,0.18287562370894395,0.17525645572394247,0.45793904582401607,0.15107174293537917,-0.034643852609617665,0.1015070745840053
2.4068767908309456,-2.6574828649476068,0.06365578659982268,1.7117124919478184,0.011578549900369283,0.09771675766354827,-0.027238455461289123,0.1817971820840932,0.1771260767203168,0.6697510034740357,0.2188729777198585,-0.0728845197725878,0.08552292862401
2.4269340974212037,-2.6553810208726585,0.06315914188268881,1.7153314034975267,0.015137130721938369,0.11313631003896245,-0.022211337268158327,0.1799727686049239,0.17868007741768147,0.8703523812132598,0.28327765399985944,-0.10924633390317454,0.06994446498080263
2.4469914040114613,-2.65293140290037,0.06277569697073435,1.7189066780829363,0.01872370273630322,0.1324574418831552,-0.015929600585400654,0.17743964258038225,0.17992653668023784,1.0599421046139517,0.34434463766397294,-0.14376107017140255,0.0547682054409317
2.4670487106017194,-2.6500581685105287,0.06252988061962125,1.722424508750367,0.022332195323707445,0.15546190936507856,-0.008459410606448024,0.1742344278160166,0.180873463807918,1.238719099248391,0.4021327946007902,-0.1764605037472805,0.03999067179094591
2.4871060171919774,-2.646689800274426,0.0624448100543205,1.7258718146672154,0.025956697354750584,0.18193544716513144,0.00013424479303956755,0.17039311261397302,0.1815287985363852,1.4068822906888503,0.45670099069890246,-0.2073764098008295,0.02560838581739396
2.507163323782235,-2.642759026284637,0.06254231451546766,1.7292362284118894,0.029591455799102797,0.21166776847515445,0.009787555055173989,0.16595104977299874,0.1819004110370337,1.5646306045076,0.5081080918469011,-0.23654056350207248,0.011617869306824572
2.527220630372493,-2.638202740584778,0.06284295880571814,1.732506083263734,0.03323087433421936,0.24445256499843862,0.0204378869398388,0.16094295658843866,0.18199610191698837,1.7121629662769142,0.5564129639333768,-0.26398474002102246,-0.0019843559542136744
2.5472779369627507,-2.632961923599292,0.06336606683610291,1.7356704004929713,0.03686951195405547,0.2800875069497175,0.032023784524689514,0.15540291485223942,0.18182360221910554,1.8496783015690725,0.6016744728469209,-0.28974071452769623,-0.015201768179172185
2.567335243553009,-2.6269815625632087,0.06412974517238365,1.7387188766506265,0.04050208157778066,0.3183742430551689,0.044484969205153435,0.14936437085294577,0.18139057342197237,1.9773755359563439,0.6439514844761249,-0.3138402621921165,-0.02803784558150225
2.587392550143267,-2.6202105719519206,0.0651509065814083,1.7416418708584598,0.04412344865849355,0.35911840055241945,0.05776233969442959,0.14286013537570338,0.18070460743990668,2.095453595010997,0.6833028647095796,-0.3363151581842966,-0.040496066374655054
2.6074498567335245,-2.612601713910954,0.06644529357746655,1.7444303920989028,0.04772862979193644,0.4021295851905399,0.0717979720234889,0.13592238370225573,0.1797732266229577,2.2041114043053076,0.7197874794358762,-0.3571971776742565,-0.05257990877208197
2.6275071633237825,-2.604111518685737,0.06802750196864521,1.7470760865049872,0.05131279132520991,0.4472213812300455,0.08653511954107417,0.12858265561094764,0.1786038837569053,2.3035478894115555,0.7534641945436057,-0.376518095832014,-0.0642928509872345
2.64756446991404,-2.5947002050513768,0.06991100440318364,1.7495712246502777,0.054871247965487445,0.4942113514428976,0.10191821291369998,0.12087185537672258,0.17720396206326047,2.39396197590201,0.7843918759213597,-0.3943096878275866,-0.07563837123356394
2.667621776504298,-2.584331600742422,0.07210817391582919,1.751908688838803,0.05839946138873005,0.542921037112503,0.1178928601256527,0.11282025177112497,0.17558077519926513,2.475552589348941,0.8126293894577289,-0.41060372883099167,-0.08661994772452133
2.6876790830945563,-2.572973062882645,0.07463030747419279,1.7540819603949902,0.061893038848400916,0.593175958033713,0.13440584647899054,0.10445747806229799,0.1737415672578924,2.5485186553246275,0.8382356010413048,-0.4254319940122488,-0.0972410586735584
2.707736389684814,-2.5605953984148018,0.07748764952510409,1.7560851069535948,0.06534773178417998,0.6448056125128279,0.15140513459354363,0.09581253201498285,0.17169351276784595,2.6130590994013376,0.8612693765606787,-0.43882625854137575,-0.10750518229412635
2.727793696275072,-2.547172784530409,0.08068941554096715,1.757912769749632,0.06875943443067858,0.6976434773675886,0.16883986440691368,0.08691377589052372,0.1694437166935608,2.6693728471513483,0.8817895819044412,-0.4508182975883873,-0.1174157967996764
2.7478510028653296,-2.5326826890995133,0.08424381556611577,1.759560150908311,0.07212418242615401,0.7515270079271857,0.1866603531744745,0.07778893644686113,0.16699921443520266,2.717658824146933,0.8998550829611843,-0.4614398863233045,-0.12697638040366005
2.7679083094555876,-2.5171057911004655,0.08815807776316889,1.7610230007349652,0.07543815142122424,0.8062976380322517,0.20481809546937155,0.0684651049385384,0.16436697182866847,2.758115955960362,0.9155247456194983,-0.47072279991614496,-0.13619041131952841
2.7879656160458457,-2.500425901049687,0.09243847195938616,1.7622976050049852,0.07869765568758248,0.8618007800348682,0.2232657631825222,0.05896873711669576,0.16155388514558597,2.7909431681639116,0.9288574357679744,-0.47869881353692506,-0.14506136776073303
2.8080229226361033,-2.4826298814314427,0.09709033319302318,1.76338077225375,0.08189914672671178,0.9178858247985576,0.2419572055226155,0.04932565322907498,0.15856678109331385,2.8163393863298523,0.9399120192952037,-0.48539970235566343,-0.1535927279407251
2.8280802292263614,-2.463707567127617,0.1021180852596873,1.7642698210665613,0.08503921187859977,0.9744061416982932,0.2608474490161127,0.03956103802001601,0.15541241681494197,2.8345035360304607,0.9487473620897786,-0.49085724154237786,-0.1617879700729561
2.848137535816619,-2.4436516858474757,0.10752526425869248,1.7649625673685707,0.08811457293045302,1.0312190786204896,0.2798926975072463,0.029699440730459756,0.15209747988929104,2.845634542838008,0.9554223300402891,-0.49510320626708604,-0.1696505723708772
2.868194842406877,-2.422457778557443,0.11331454213941526,1.7654573117147165,0.09112208472541196,1.088185961963008,0.2990503321580211,0.019764775097945914,0.14862858833091264,2.849931332324769,0.9599957890353263,-0.498169371699807,-0.17718401304793985
2.888252148997135,-2.400124119910872,0.11948775024764996,1.7657528265796532,0.09405873377126531,1.145172096635157,0.31827891144821363,0.009780319356614026,0.1450122905900895,2.8475928300630153,0.9625266049634824,-0.5000875130105568,-0.1843917703175954
2.9083094555873927,-2.3766516386778145,0.1260459028719641,1.7658483436476837,0.09692163684916474,1.2020467660576875,0.33753817117537177,-0.00023128376279690777,0.14125506555283524,2.838817961625021,0.9630736437133472,-0.5008894053693554,-0.19127732239329504
2.928366762177651,-2.352043838174794,0.1329892207900539,1.765743541102693,0.09970803962233955,1.258683232162798,0.35678902445481614,-0.010248027032947166,0.13736332254089442,2.82380565258306,0.9616957711735127,-0.5006068239462195,-0.19784414748849022
2.9484240687679084,-2.3263067166945732,0.14031715481509974,1.765438530918076,0.10241531524481112,1.3149587353941314,0.37599356171963816,-0.02024853872989918,0.13334340131174258,2.8027548285094053,0.9584518532325694,-0.49927154391116646,-0.20409572381663216
2.9684813753581665,-2.2994486879359335,0.14802840934212155,1.764933846146678,0.10504096297010795,1.370754494706778,0.3951150507207021,-0.030212082633114423,0.12920157205858648,2.775864414976331,0.9534007557791102,-0.4969153404342145,-0.2100355295911724
2.988538681948424,-2.271480501433431,0.15612096589433422,1.764230428210714,0.10758260675997956,1.425955707567271,0.41411793652664336,-0.04011855802545561,0.12494403541036335,2.7433333375561086,0.9466013447017236,-0.49356998868538193,-0.21566704302556206
3.008595988538682,-2.2424151629871836,0.16459210666950302,1.7633296141917132,0.11003799389311188,1.4804515499535904,0.432967841523869,-0.04994849969318435,0.12057692243174191,2.705360521821013,0.9381124858890031,-0.48926726383468644,-0.22099374233325272
3.02865329512894,-2.2122678550926325,0.1734384380862992,1.7622331241204428,0.11240499357384132,1.5341351763551612,0.4516315654165586,-0.05968307792596425,0.11610629462312157,2.662144893343316,0.9279930452295387,-0.48403894105214584,-0.2260191057276954
3.048710601719198,-2.1810558573703163,0.1826559143306553,1.7609430482668431,0.11468159554086967,1.5869037197728535,0.47007708522666286,-0.06930409851685804,0.11153814392063267,2.6138853776952913,0.9163018886119213,-0.4779167955077781,-0.2307466114223416
3.068767908309456,-2.1487984669956433,0.19223986090212053,1.7594618344299613,0.11686590867597868,1.6386582917189858,0.48827355529390504,-0.07879400276232973,0.1068783926961369,2.560780900449217,0.9030978819247433,-0.47093260237160284,-0.23517973763064282
3.0888252148997135,-2.115516919128656,0.2021849981602162,1.7577922752278767,0.11895615961274443,1.6893039822173166,0.5061913072757793,-0.08813586746224328,0.10213289375722627,2.5030303871773585,0.8884398910565945,-0.46311813681363334,-0.23932196256604996
3.1088825214899716,-2.081234307343815,0.21248546487079156,1.7559374953876432,0.12095069134525252,1.7387498598030573,0.523801850147553,-0.0973134049198634,0.0973074303472245,2.440832763451996,0.8723867818960673,-0.4545051740038917,-0.24317676444201486
3.1289398280802296,-2.0459755040597534,0.22313484175237847,1.7539009390352094,0.12284796183681192,1.7869089715228563,0.5410778702022636,-0.10631096294185427,0.09240771614518563,2.374386954845397,0.8549974203317515,-0.4451254891123939,-0.2467476214719884
3.1489971346704873,-2.0097670809690653,0.23412617502254757,1.7516863569853618,0.12464654262867028,1.8336983429348126,0.5579932310507216,-0.11511352483828091,0.08743939526589517,2.3038918869298395,0.8363306722522396,-0.43501085730915867,-0.2500380118694222
3.1690544412607453,-1.9726372294680636,0.2454519999442633,1.7492977940316485,0.12634511744872823,1.8790389781084715,0.574522973621509,-0.12370670942260908,0.08240804225986936,2.229546485277594,0.8164454035461216,-0.4241930537642038,-0.2530514138477674
3.189111747851003,-1.934615681086556,0.2571043643722396,1.7467395762363156,0.1279424808202539,1.9228558596248204,0.5906433161609799,-0.13207677101170406,0.07731916211335542,2.1515496754609345,0.7954004801019892,-0.41270385364754625,-0.2557913056204756
3.209169054441261,-1.8957336279176178,0.2690748522992952,1.7440162982202372,0.12943753667059782,1.965077948576295,0.6063316542332593,-0.14021059942583292,0.07217819024833158,2.070100383052136,0.773254767808434,-0.40057503212920476,-0.25826116540099797
3.229226361031519,-1.856023643047357,0.28135460740270857,1.7411328104528463,0.13082929693990716,2.0056381845667732,0.6215665607202449,-0.14809571998866128,0.06699049252250701,1.9853975336234697,0.7500671325540461,-0.3878383643791967,-0.2604644714027857
3.2492836676217767,-1.8155196009846981,0.29393435659057465,1.738094206542075,0.13211688018984108,2.0444734857115834,0.6363277858216063,-0.1557202935272567,0.061761365229322046,1.8976400527472115,0.7258964402274184,-0.3745256255675413,-0.26240470183929054
3.2693409742120347,-1.7742565980911336,0.30680443354815884,1.7349058105242714,0.13329951021228423,2.0815247486374937,0.6505962570547841,-0.1630731163720857,0.056496035097947594,1.8070268659956312,0.7008015567171398,-0.3606685908642542,-0.26408533492396336
3.2893982808022924,-1.7322708730105154,0.3199548022842533,1.7315731641541467,0.1343765146380624,2.1167368484827214,0.6643540792549915,-0.1701436203570158,0.051199659293285994,1.7137568989410041,0.674841347911803,-0.3462990354393547,-0.2655098488702557
3.3094555873925504,-1.6895997270988121,0.3333750806775324,1.728102014194698,0.1353473235456567,2.150058638896928,0.677584534575213,-0.1769218728193157,0.045877325415970255,1.6180290771556018,0.6480746796999988,-0.33144873446285983,-0.2666817218916188
3.3295128939828085,-1.646281444853885,0.3470545640229075,1.7244982997071434,0.13621146806991805,2.1814429520412224,0.6902720824862055,-0.1833985765996532,0.0405340515023644,1.5200423262117038,0.6205604179703184,-0.3161494631047903,-0.26760443220150437
3.349570200573066,-1.6023552143452595,0.3609822485778832,1.7207681393408547,0.13696857901078208,2.210846598588156,0.7024023597764975,-0.18956507004209722,0.035174786024563566,1.4199955716815762,0.5923574286113531,-0.30043299653515976,-0.2682814580133633
3.369627507163324,-1.5578610476438939,0.3751468551089119,1.716917818623285,0.13761838544198346,2.238230367721725,0.7139621805523884,-0.19541332699411595,0.02980440789039368,1.318087739137494,0.563524577511693,-0.2843311099239878,-0.2687162775406469
3.3896848137535818,-1.512839701251957,0.3895368524377504,1.7129537772499097,0.13816071331977112,2.2635590271373776,0.7249395362379512,-0.20093595680657972,0.02442772644341186,1.2145177541517345,0.5341207305599314,-0.2678755784412936,-0.26891236899680687
3.40974212034384,-1.467332596532586,0.4041404809878138,1.7088825963741467,0.1385954840916218,2.286801323041998,0.7353235955750288,-0.20612620433375772,0.019049481462905905,1.109484542296566,0.5042047536446569,-0.25109817725709416,-0.2688732105952942
3.429799426934098,-1.4213817401396749,0.418945776330533,1.7047109858972997,0.13892271330495604,2.3079299801539257,0.7451047046232377,-0.21097794993332042,0.01367434316389484,1.0031870291442644,0.47383551265446255,-0.2340306815414066,-0.26860228054956053
3.4498567335243555,-1.3750296444476293,0.4339405927317075,1.7004457717584807,0.1391425092158514,2.3269217017029367,0.7542743867599652,-0.2154857094663375,0.008306912197128598,0.8958241402671036,0.4430718734779392,-0.21670486646424947,-0.268103057073057
3.4699140401146136,-1.3283192479811488,0.4491126266978632,1.6960938832245498,0.13925507139775806,2.3437571694302592,0.7628253426803704,-0.21964463429728065,0.002951719649088042,0.7875948012373546,0.41197270200367697,-0.19915250719564104,-0.2673790183792349
3.489971346704871,-1.281293835844993,0.46444944052260695,1.691662340180041,0.13926068935021324,2.358421043588563,0.7707514503973848,-0.22345051129402038,-0.0023867729580150238,0.6786979376272934,0.38059686412026816,-0.1814053789055985,-0.2664336426815458
3.5100286532951293,-1.2339969601537528,0.47993848583298115,1.687158240417098,0.13915974110755538,2.3709019629419634,0.7780477652417107,-0.22689976282782842,-0.007704173666237678,0.5693324750091926,0.3490032257163036,-0.1634952567641399,-0.2652704081934407
3.530085959885387,-1.1864723604616227,0.4955671271358211,1.6825887469254055,0.13895269184763942,2.3811925447660247,0.7847105198618237,-0.22998944677337652,-0.01299616008190626,0.45969733895532083,0.31725065268037367,-0.14545391594128199,-0.2638927931283711
3.550143266475645,-1.1387638841921737,0.5113226653641083,1.6779610751821206,0.13864009250055093,2.389289384847754,0.79073712422397,-0.2327172565087371,-0.018258479375615824,0.3499914550379598,0.28539801090107075,-0.12731313160704572,-0.2623042756997886
3.570200573065903,-1.090915407068119,0.5271923614233274,1.6732824804418038,0.13822257835732082,2.3951930574856024,0.7961261656121681,-0.23508152091538292,-0.023486948282230725,0.24041374882937727,0.25350416626698546,-0.10910467893144649,-0.260508334121144
3.5902578796561606,-1.04297075354109,0.543163459737821,1.6685602450263535,0.13770086767864015,2.3989081154894687,0.8008774086282081,-0.2370812043781858,-0.028677453100884168,0.1311631459018493,0.22162798466670952,-0.09086033308450214,-0.258508446605889
3.6103151862464187,-0.994973617221405,0.5592232117971456,1.6638016656149366,0.1370757603035746,2.400443090180698,0.8049917951916525,-0.23871590678542076,-0.03382594969497855,0.022438571827646192,0.18982833198883298,-0.07261186923623142,-0.25630809136747484
3.6303724928366763,-0.9469674813078415,0.5753588997024259,1.659014040533919,0.136348136258279,2.399810491392079,0.8084714445398347,-0.23998586352875984,-0.038928463492185116,-0.08556104782095497,0.15816407412194755,-0.054391062556652825,-0.253910746619353
3.6504297994269344,-0.8989955390174063,0.5915578597127118,1.6542046570468012,0.13551895436471223,2.3970268074678454,0.8113196532278608,-0.24089194550327764,-0.04398108948444426,-0.19263678747168334,0.12669407695464474,-0.03622968821578265,-0.2513198905749745
3.6704871060171924,-0.8511006140151072,0.6078075057913325,1.6493807786441468,0.13458925084935155,2.392112505263679,0.8135408951286084,-0.24143565910744935,-0.048979992227965445,-0.29858972155226804,0.09547720637551482,-0.0181595213836383,-0.24853900144779087
3.69054441260745,-0.8033250808437242,0.6240953531522526,1.644549632333516,0.13356013795190738,2.3850920301467045,0.8151408214327265,-0.2416191462431483,-0.053921405843226924,-0.40322092449042957,0.06457232827314985,-0.0002123372302409443,-0.24557155745125342
3.710601719197708,-0.7557107853535807,0.6404090418064273,1.6397183959293984,0.13243280253403794,2.3759938059954933,0.8161262606486367,-0.24144518431565065,-0.05880163401497622,-0.506331470713899,0.03403830853614109,0.01758008907439579,-0.2424210367988134
3.7306590257879657,-0.7082989651323133,0.6567363601081584,1.6348941853431431,0.1312085046880637,2.3648502352000613,0.8165052186025319,-0.240917186233631,-0.06361704999222978,-0.6077224346504021,0.003934013053078722,0.0351859823602505,-0.2390909177039223
3.7507163323782238,-0.6611301699346437,0.6730652683014486,1.6300840418728924,0.1298885763456822,2.351697698661872,0.8162868784383769,-0.24003920040916582,-0.0683640965882731,-0.7071948907276628,-0.025681692287445657,0.05257356745730557,-0.2355846783800315
3.770773638968482,-0.614244182112151,0.6893839220663585,1.6252949194935127,0.12847441988668254,2.336576555793832,0.8154816006179082,-0.23881591075773123,-0.07303928618066072,-0.8045499133734123,-0.05474994159684021,0.06971106919554648,-0.23190579704059205
3.7908309455587395,-0.567679937043041,0.7056806960653601,1.6205336721465269,0.12696750674766005,2.319531144520294,0.8141009229206346,-0.23725263669820307,-0.07763920071121613,-0.8995885770153745,-0.08321186898651445,0.08656671240495228,-0.22805775189905547
3.8108882521489975,-0.5214754435619179,0.7219442074896941,1.6158070410300462,0.1253693760307309,2.3006097812770574,0.8121575604438365,-0.23535533315285884,-0.08216049168603196,-0.9921119560812773,-0.11100860856787798,0.1031087219155058,-0.2240440211688731
3.830945558739255,-0.47566770438955475,0.7381633396057246,1.6111216418887029,0.12368163311224667,2.279864761011365,0.8096654056025655,-0.23313059054737506,-0.08659988017546982,-1.0819211249988463,-0.13808129445233797,0.11930532255718895,-0.2198680830634962
3.851002865329513,-0.430292636562668,0.7543272653012931,1.6064839523035812,0.12190594825150912,2.257352357181907,0.8066395281296461,-0.23058563481083016,-0.09095415681416022,-1.168817158195808,-0.16437106075130414,0.13512473915998446,-0.2155334157963762
3.8710601719197713,-0.3853849918636832,0.770425470632077,1.60190029898215,0.12004405519948463,2.233132821758818,0.8030961750756738,-0.22772832737570203,-0.0952201818010029,-1.2526011300998903,-0.18981904157618545,0.15053519655387426,-0.2110434975809643
3.891117478510029,-0.3409782772505094,0.7864477783679427,1.5973768450481942,0.11809774980751894,2.207270385223679,0.7990527708090165,-0.224567165177868,-0.09939488489916651,-1.3330741151388192,-0.21436637103839007,0.16550491956884106,-0.2064018066307119
3.911174785100287,-0.2971046752863099,0.8023843715393012,1.5929195773317475,0.11606888863605166,2.1798332565695153,0.7945279170158134,-0.221111280656608,-0.10347526543608879,-1.4100371877403206,-0.23795418324932827,0.180002133034865,-0.20161182115907053
3.9312320916905446,-0.2537949645692728,0.8182258169834646,1.5885342936590243,0.113959387563331,2.150893623300798,0.7895413926999757,-0.21737044175460007,-0.10745839230347642,-1.4832914223321225,-0.26052361232040666,0.19399506178193082,-0.19667701937949117
3.9512893982808026,-0.21107844016238264,0.8339630888910011,1.5842265901423511,0.1117712203941284,2.1205276514334437,0.7841141541831869,-0.21335505191792392,-0.1113414039573052,-1.5526378933419507,-0.2820157923630361,0.207451930640019,-0.19160087950542531
3.9713467048710607,-0.16898283402319014,0.8495875923520896,1.5800018484700984,0.10950641746845291,2.0888154854948144,0.7782683351049011,-0.20907615009605918,-0.1151215084178199,-1.617877675197533,-0.3023718574886247,0.22034096443911177,-0.1863868797503242
3.9914040114613183,-0.12753423543358638,0.865091186902876,1.5758652231966135,0.10716706427026629,2.055841248523719,0.7720272464223461,-0.20454541074188604,-0.1187959832695343,-1.678811842326593,-0.32153294180858083,0.23263038800919078,-0.1810384983276395
4.011461318051576,-0.08675701142957087,0.8804662100718283,1.571821629032153,0.10475530003619712,2.0216930420704102,0.7654153764105198,-0.19977514381168526,-0.12236217566123117,-1.73524146915686,-0.3394401794343137,0.24428842618023977,-0.17555921345082232
4.031518624641834,-0.04667372723102203,0.8957055009260932,1.5678757281328117,0.10227331636425564,1.9864629461965864,0.7584583906621924,-0.19477829476513708,-0.12581750230596248,-1.7869676301160602,-0.3560347044772326,0.2552833037822396,-0.16995250333332393
4.051575931232092,-0.007305066671471905,0.9108024236178496,1.564031917390459,0.09972335582254842,1.9502470194753911,0.7511831320879065,-0.18956844456532296,-0.12915944948104915,-1.8337913996319197,-0.37125765104874575,0.2655832456451724,-0.16422184618859584
4.07163323782235,0.031330247372126085,0.9257508909306649,1.5602943157226672,0.09710771055799289,1.9131452989914157,0.7436176209159765,-0.18415980967872447,-0.132385573028081,-1.8755138521321668,-0.38505015326026243,0.27515647659902076,-0.1583707202300893
4.091690544412608,0.06921553254962459,0.9405453878258515,1.5566667513626458,0.094428720905032,1.8752618003406925,0.7357910546924871,-0.17856724207522312,-0.13549349835291707,-1.9119360620445267,-0.3973533452231903,0.2839712214737684,-0.1524026036712553
4.111747851002866,0.1063362266079102,0.9551809949888197,1.5531527491491723,0.09168877399434885,1.8367045176307037,0.7277338082812971,-0.17280622922810118,-0.13848092042568524,-1.942859103796727,-0.4081083610489406,0.2919957050993937,-0.14632097472554578
4.131805157593123,0.1426799669611353,0.969653412375436,1.5497555178165243,0.08889030236158121,1.797585423480374,0.7194774338640348,-0.16689289411404173,-0.1413456037807826,-1.9680840518164935,-0.41725633484892033,0.2991981523058812,-0.14012931160641168
4.151862464183381,0.17823667026094356,0.9839589827583766,1.5464779372844129,0.08603578255603642,1.758020469020077,0.7110546609401027,-0.16084399521312753,-0.14408538251687514,-1.9874119805315547,-0.4247384007345394,0.3055467879232129,-0.13383109252730446
4.1719197707736395,0.21299861196670222,0.9980947152734835,1.5433225459479116,0.08312773374940552,1.718129583891627,0.7024993963266735,-0.15467692650884124,-0.14669816029689786,-2.000643964369635,-0.43049569281720557,0.31100983678137034,-0.12742979570167534
4.191977077363897,0.2469605059157277,1.0120583089661197,1.540291527967392,0.08016871634447845,1.6780366762482883,0.6938467241586922,-0.1484097174880672,-0.14918191034805486,-2.007581077758461,-0.43446934520832775,0.3155555237103381,-0.12092889934297577
4.212034383954155,0.2801195838935171,1.0258481763375253,1.5373867005584536,0.07716133058385818,1.6378696327547675,0.6851329058888749,-0.14206103314108942,-0.1515346754618193,-2.0080243951257613,-0.436600492019316,0.31915207354009323,-0.11433188166465712
4.232091690544413,0.3124756752039765,1.0394634668911722,1.5346095012818552,0.07410821515867552,1.5977603185872182,0.6763953802877112,-0.13565017396159185,-0.15375456799393328,-2.001774990899262,-0.43683026736157815,0.3217677111006222,-0.10764222088017057
4.252148997134671,0.344031286239648,1.0529040906791198,1.531960975333449,0.07101204581730394,1.5578445774332392,0.6676727634434609,-0.12919707594665986,-0.15583976986440792,-1.9886339395066894,-0.4350998053465224,0.3233706612219065,-0.10086339520296755
4.2722063037249285,0.3747916800519419,1.0661707418483704,1.5294417628341115,0.06787553397407378,1.5182622314918746,0.6590048487621569,-0.12272231059677763,-0.15778853255752345,-1.968402315375769,-0.4313502400855597,0.323929148733928,-0.09399888284649928
4.292263610315187,0.4047649559213622,1.0792649221872244,1.5270520861196748,0.06470142531798727,1.4791570814736141,0.6504326069676024,-0.11624708491583147,-0.15959917712182906,-1.94088119293423,-0.4255227056900972,0.32341139846666644,-0.08705216202421731
4.312320916905445,0.43396212892773856,1.0921889646716365,1.52479173703086,0.06149249842143276,1.4406769066003928,0.6419981861013736,-0.10979324141110691,-0.161270094170143,-1.9058716466097976,-0.4175583362715447,0.32178563525010606,-0.08002671094957281
4.332378223495702,0.4623972095204525,1.1049460570115706,1.5226600642032073,0.05825156334889976,1.4029734646055911,0.6337449115228186,-0.10338325809328963,-0.16279974387955248,-1.8631747508301975,-0.4073982659413093,0.31902008391422987,-0.07292600783601719
4.35243553008596,0.49008728308866867,1.1175402651973543,1.5206559603570116,0.05498146026569323,1.366202491734036,0.625717285909057,-0.09704024847646697,-0.16418665599141388,-1.81259158002316,-0.3949836288108029,0.315082969289018,-0.06575353089700176
4.372492836676218,0.5170525895315627,1.1299765570460372,1.5187778495872488,0.05168505804664823,1.330523702741998,0.6179609892549793,-0.09078796157812508,-0.16542942981135245,-1.7539232086164072,-0.380255558991431,0.30994251620445423,-0.05851275834597769
4.392550143266476,0.5433166028285488,1.1422608257477425,1.5170236746535135,0.04836525288484485,1.2961007908971944,0.6105228788732495,-0.08465078191915132,-0.16652673420926256,-1.6869707110376675,-0.363155190594605,0.3035669494905191,-0.05120716839639666
4.412607449856734,0.5689061106095116,1.1543999134120257,1.515390884269948,0.04502496690032236,1.2631014279787878,0.6034509893943021,-0.07865372952383365,-0.16747730761930757,-1.6115351617146687,-0.3436236577317323,0.29592449397719633,-0.04384023926170966
4.432664756446992,0.5938512937250323,1.1664016346142279,1.5138764203951742,0.041667146748794286,1.2316972642773862,0.5967945327663451,-0.07282245991986003,-0.1682799580399199,-1.527417635075137,-0.3216020945142224,0.2869833744944672,-0.03641544915536815
4.45272206303725,0.6181858058166192,1.1782747999418326,1.5124767055222272,0.03829476223036268,1.2020639285950427,0.5906038982553556,-0.06718326413831799,-0.16893356303380092,-1.434419205546798,-0.2970316350534835,0.2767118158723143,-0.02893627629082368
4.472779369627507,0.6419468528869363,1.1900292395408203,1.511187629968485,0.03491080489823285,1.1743810282452558,0.5849306524450846,-0.06176306871369741,-0.1694370697279211,-1.332340947557379,-0.2698534134609256,0.26507804294071713,-0.021406198881527283
4.492836676217765,0.6651752728700315,1.2016758266620242,1.5100045391656036,0.031518286667428175,1.148832149052971,0.5798275392370548,-0.056589435683885636,-0.16978949481352,-1.2209839355346075,-0.2400085638479561,0.2520502805296623,-0.01382869514093038
4.5128939828080235,0.6879156152015665,1.2132265012074859,1.5089222209494453,0.028120238423504335,1.1256048553545768,0.57534847985056,-0.05169056259017413,-0.169989924546106,-1.1001492439062082,-0.20743822032598458,0.23759675346913012,-0.006207243282484176
4.532951289398281,0.7102162203890448,1.2246942932768106,1.5079348928500145,0.024719708631264367,1.1048906899979094,0.571548572822666,-0.047095282477251255,-0.1700375147454567,-0.9696379470999108,-0.1720835170064201,0.22168568658910104,0.0014546784803596835
4.553008595988539,0.7321292995820419,1.2360933467135224,1.507036189381386,0.021319761943472862,1.0868851743422492,0.5684840940082114,-0.042833063893206735,-0.16993149079561864,-0.8292511195434376,-0.1338855880006713,0.20428530471955897,0.009153591934150107
4.573065902578797,0.7537110141424319,1.2474389426514194,1.5062191493316401,0.017923477809570973,1.0717878082583225,0.5662124965798048,-0.03893401088953197,-0.16967114764490737,-0.6787898356645206,-0.09278556742014743,0.1853638326904843,0.01688601886543567
4.593123209169055,0.7750215552146192,1.2587475230609306,1.5054762030527926,0.01453394908439073,1.0598020701283006,0.564792411027828,-0.035428863021117696,-0.1692558498059076,-0.5180551698908833,-0.04872458937625579,0.16488949533186048,0.024648481060764893
4.613180515759312,0.7961252232957661,1.2700367142954698,1.5047991597507278,0.011154280636869768,1.0511354168458005,0.564283645160434,-0.03234899534625563,-0.1686850313554729,-0.3468481966502502,-0.0016437879804058753,0.1428305174736728,0.03243750030668702
4.633237822349571,0.8170905078060207,1.2813253506377913,1.5041791947751306,0.007787587958766093,1.0459992838158858,0.5647471841035483,-0.02972641842663526,-0.16795819593472588,-0.16496999037035337,0.04851570265599259,0.11915512394589811,0.04024959838975006
4.6532951289398286,0.8379901666587478,1.2926334978463465,1.5036068369094167,0.004436995773372399,1.0446090849550635,0.5662451903008678,-0.027593778327350493,-0.1670749167490583,0.027778374521085447,0.1018127484215281,0.09383153957851675,0.04808129709650266
4.673352435530086,0.8589013058307557,1.3039824767016372,1.503071955660667,0.001105636644231022,1.0471842126912876,0.5688410035138606,-0.025984356616892496,-0.1660348365681309,0.23159582359633585,0.15830621520479893,0.06682798920152067,0.05592911821349411
4.693409742120344,0.8799021560215335,1.3153948783543261,1.5025642561012644,-0.0022031972492622593,1.0532011135032064,0.5725955719286182,-0.024817407646182465,-0.16480335529364962,0.33351118060985424,0.21700240023407638,0.055451324255168535,0.0688914695697638
4.713467048710602,0.9010358789959823,1.3268939620861164,1.5020788042108792,-0.0054844748399764205,1.0603179282136426,0.5774983607947191,-0.023737361240096472,-0.16327433524629487,0.3775357973200172,0.27267141809527806,0.05257731986101816,0.08391216199916252
4.73352435530086,0.9223204907258566,1.3385019945260437,1.5016143879990682,-0.008732207107538373,1.0682774326955884,0.5834784568322767,-0.022713364725828755,-0.16145077714317443,0.417793508967354,0.3247446629336256,0.04984583435384694,0.09834660500488143
4.7535816618911175,0.9437720969660568,1.3502398072811537,1.5011699147714834,-0.011940620008774118,1.0770050899201769,0.5904646373140664,-0.021742597768817356,-0.15934432618124914,0.4543644227908211,0.37329140807238714,0.04725386341556197,0.11220277773818056
4.773638968481376,0.9654053287523543,1.3621268213586142,1.5007443476396074,-0.015104170808618637,1.086427965003321,0.5983870649793298,-0.02082230012086726,-0.15696646797445502,0.48732864602938275,0.41838092683482014,0.04479840272807562,0.1254886593503202
4.793696275071634,0.9872333744442848,1.3741810748750394,1.5003367043190197,-0.018217544888455353,1.0964747252057125,0.6071772880337724,-0.01994977162014239,-0.15432852855370247,0.5167662859220088,0.46008249254419986,0.04247644797330741,0.13821222899255958
4.813753581661891,1.009268011768048,1.3864192507658253,1.4999460559276758,-0.021275652554455685,1.107075639932821,0.6167682401495649,-0.019122372191171175,-0.15144167436687703,0.5427574497076573,0.4984653785237794,0.04028499483316438,0.15038146581615888
4.83381088825215,1.0315196398593978,1.398856704494473,1.4995715257841744,-0.02427362584591845,1.1181625807348983,0.6270942404653456,-0.018337521844839423,-0.14831691227883875,0.5653822446252936,0.5335988580968277,0.038221038989563375,0.16200434897237798
4.853868194842407,1.0539973113065437,1.4115074917619241,1.4992122882060355,-0.027206815343609483,1.1296690213069722,0.6380909935862159,-0.017592700678398562,-0.14496508957142284,0.5847207779138803,0.5655522045866113,0.03628157612441592,0.17308885761247692
4.873925501432665,1.076708764193042,1.424384396215884,1.4988675673079674,-0.030070786978101,1.1415300374888522,0.6496955895837432,-0.01688544887546007,-0.1413968939434389,0.600853156812378,0.5943946913163856,0.03446360191963525,0.18364297088771536
4.893982808022923,1.099660454140694,1.4374989571601566,1.4985366358001462,-0.032861318838111254,1.153682307265126,0.6618465039959593,-0.016213366705998364,-0.1376228535106717,0.6138594885597569,0.6201955916094261,0.032764112057137376,0.19367466794935315
4.914040114613181,1.1228575863524395,1.450861497263969,1.4982188137864823,-0.03557439797884385,1.166064110765161,0.674483597827363,-0.01557411452634703,-0.1336533368058806,0.6238198803949769,0.6430241787889919,0.031180102218834632,0.2031919279486503
4.934097421203439,1.1463041476552533,1.464481150271303,1.4979134675628947,-0.03820621723032733,1.1786153302631033,0.6875481175489168,-0.014965412779204377,-0.12949855277879974,0.6308144395570019,0.6629497261783488,0.02970856808664124,0.21220273003686638
4.954154727793696,1.1700029385430426,1.4783658887102276,1.4976200084155895,-0.04075317200575475,1.1912774501778793,0.7009826950980503,-0.014385041993627654,-0.12516855079613826,0.6349232732847957,0.68004150710076,0.028346505342469464,0.2207150533652616
4.974212034383955,1.1939556052195388,1.4925225516022196,1.4973378914193223,-0.043211857109823,1.203993557073193,0.7147313478786557,-0.013830842785038832,-0.12067322064157984,0.6362264888173197,0.6943687948794859,0.027090909668231855,0.22873687708509569
4.9942693409742125,1.2181626716411973,1.5069568721715039,1.4970666142356817,-0.04557906354707248,1.2167083396575293,0.7287394787610929,-0.013300715855219702,-0.1160222925157833,0.6348041933935409,0.7060008628377972,0.025938776745843467,0.23627618034762854
5.01432664756447,1.2426235715600884,1.5216735055543722,1.496805715911353,-0.047851775330226415,1.2293680887841514,0.7429538760821858,-0.01279262199231395,-0.11122533703638186,0.6307364942524187,0.7150069842989533,0.02488710225721652,0.24334094230411998
5.034383954154729,1.267336680566799,1.5366760565085218,1.4965547756763988,-0.050027166288530565,1.241920697451103,0.7573227136452247,-0.01230458207082609,-0.1062917652379839,0.6241034986329214,0.7214564325862249,0.023932881884267676,0.24993914210582996
5.054441260744986,1.2922993481333211,1.551967107122378,1.4963134117425245,-0.05210259687609251,1.2543156608012056,0.7717955507199636,-0.011834677051625442,-0.10123082857217239,0.6149853137740083,0.7254184810228691,0.023073111308906435,0.25607875890401843
5.074498567335244,1.3175079296559522,1.5675482445244246,1.4960812801013563,-0.05407561098022124,1.2665040761220598,0.7863233320426227,-0.011381047981940375,-0.0960516189075051,0.603462046914645,0.7269624029321528,0.02230478621304749,0.26176777184994493
5.0945558739255015,1.3429578184981907,1.583420088592538,1.4958580733227123,-0.05594393272976671,1.2784386428460475,0.8008583878158885,-0.010941895995361092,-0.09076306852951482,0.5896138052937937,0.7261574716373411,0.02162490227860492,0.2670141600948697
5.11461318051576,1.3686434780336292,1.5995823196633094,1.4956435193528737,-0.0577054633034592,1.2900736625503275,0.8153544337089101,-0.010515482311840685,-0.08537395014070885,0.5735206961504188,0.7230729604616967,0.02103045518749158,0.27182590279005236
5.134670487106018,1.3945584736888523,1.6160337062413812,1.495437380312862,-0.059358277738249,1.3013650389568399,0.8297665708573052,-0.010100128237693087,-0.0798928768605695,0.5552628267234846,0.7177781427284868,0.020518440621621503,0.276210979086753
5.154727793696275,1.420695504986329,1.632772132708769,1.4952394512967047,-0.06090062173764562,1.3122702779323023,0.8440512858631536,-0.009694215165594502,-0.07432830222555376,0.5349203042519534,0.7103422917609733,0.020085854262907654,0.2801773681362313
5.174785100286534,1.4470464375873138,1.649794627034198,1.4950495591697166,-0.062330908480057665,1.3227484874882132,0.858166450795003,-0.009296184574583213,-0.06868852018909356,0.5125732359747888,0.7008346808824206,0.01972969179326345,0.2837330490897472
5.194842406876791,1.4736023353347367,1.6670973884824278,1.4948675613667648,-0.06364771542713199,1.3327603777808497,0.8720713231878652,-0.008904538030057418,-0.0629816651215955,0.48830172913095526,0.6893245834160941,0.01944694889460341,0.28688600109856066
5.214899713467049,1.5003534922960997,1.6846758153235806,1.494693344690545,-0.06484978113209328,1.3422682611112664,0.8857265460432161,-0.008517837183779603,-0.05721571181044099,0.46218589095941387,0.6758812726852559,0.01923462124883879,0.2896442033139315
5.234957020057307,1.5272894648063773,1.7025245325424763,1.4945268241098562,-0.06593600204808377,1.3512360519253,0.8990941478289993,-0.008134703773872182,-0.05139847545998632,0.43430582869913015,0.6605740220131711,0.019089704537884833,0.2920156348871194
5.255014326647565,1.5543991035109066,1.7206374195479572,1.4943679415578703,-0.06690542933650245,1.3596292668135659,0.9121375424796224,-0.0077538196248194136,-0.045537611691562604,0.404741649589069,0.6434721047231062,0.01900919444365534,0.2940082749693844
5.275071633237823,1.5816705854082849,1.7390076378822181,1.4942166647304056,-0.06775726567534475,1.3674150245114578,0.924821529395959,-0.007373926647467971,-0.03964061654347565,0.37357346086819043,0.6246447941383233,0.0189900866480619,0.29563010271198653
5.29512893982808,1.6090914458932633,1.7576276589301336,1.4940729858841977,-0.06849086206754179,1.3745620458991472,0.9371122934453451,-0.006993826839026496,-0.0337148264710061,0.34088136977545935,0.6041613635820866,0.01902937683301975,0.2968890972661853
5.315186246418339,1.6366486107996483,1.7764892916285946,1.4939369206351798,-0.0691057146493003,1.3810406540015896,0.9489774049615866,-0.006612382283064322,-0.02776741834640946,0.30674548354984066,0.5820910863776614,0.019124060680441257,0.29779323778324096
5.335243553008596,1.6643284284431907,1.7955837101758299,1.493808506756746,-0.06960146149844176,1.3868227739885153,0.960385819744952,-0.006228515149512892,-0.021805409458915972,0.27124590943029636,0.5585032358483113,0.01927113387224,0.29835050341441316
5.355300859598854,1.6921167016644827,1.8149014817407365,1.4936878029780274,-0.06997787944274189,1.3918819331744348,0.9713078790621746,-0.005841207694666034,-0.01583565751473067,0.23446275465578958,0.5334670853173002,0.01946759209033022,0.2985688733109617
5.3753581661891126,1.7199987198718556,1.8344325941722142,1.4935748877821684,-0.07023488086827041,1.3961932610186396,0.9817153096464541,-0.0054495022611784905,-0.009864860637033464,0.19647612646528523,0.507051908107893,0.019710431016624286,0.2984563266241466
5.39541547277937,1.7479592910842772,1.8541664837084906,1.4934698582045969,-0.0703725105277304,1.3997334891251993,0.9915812236974557,-0.005052501278066834,-0.003899557365979082,0.15736613209774641,0.4793269775433546,0.01999664633303644,0.29802084250522787
5.415472779369628,1.7759827739742393,1.87409206268645,1.493372828631294,-0.07039094234879766,1.4024809512429623,1.0008801188813088,-0.0046493672607102465,0.0020538733413030807,0.11721287879213493,0.4503615669469474,0.020323233721479372,0.2972704001054651
5.435530085959885,1.804053109910661,1.8941977472509637,1.493283929597071,-0.07029047624246035,1.404415583265557,1.009587878330609,-0.004239322810848267,0.007989212110708736,0.07609647378741613,0.420224949641937,0.020687188863867223,0.2962129785761182
5.455587392550144,1.8321538550017826,1.9144714850642213,1.4932033065838415,-0.07007153491135856,1.4055189232313912,1.017681770644417,-0.0038216506165830166,0.013900399151158718,0.03409702432255446,0.38898639895158893,0.021085507442113682,0.29485655706844716
5.4756446991404015,1.8602682121380598,1.9349007830150584,1.4931311188188934,-0.06973466065812364,1.4057741113236517,1.0251404498882586,-0.003395693452378501,0.01978153425459922,-0.008705362363488511,0.35671518819916503,0.021515185138131665,0.29320911473371186
5.495702005730659,1.888379063035058,1.955472734928283,1.4930675380731597,-0.06928051219371775,1.4051658898703034,1.0319439555941243,-0.002960854179060113,0.025626876796001587,-0.052230579031749436,0.3234805907079301,0.021973217633834974,0.29127863072317195
5.515759312320918,1.9164690002763518,1.9761740492740099,1.4930127474594954,-0.06870986144577342,1.403680603344093,1.0380737127604713,-0.002516595743814354,0.03143084573336224,-0.09639851844326408,0.2893518798011483,0.02245660061113597,0.2890730841880876
5.535816618911175,1.9445203593564193,1.996991076876989,1.492966940230949,-0.06802359036693298,1.401306198362544,1.0435125318522216,-0.0020624411801911102,0.037188019607702925,-0.14112907335906888,0.2543983288020861,0.02296232975194945,0.28660045427971864
5.555873925501433,1.9725152507235348,2.0179098386259295,1.4929303185790312,-0.06722268774318808,1.3980322236879617,1.0482446088007618,-0.0015979736081003781,0.0428931365430706,-0.1863421365402007,0.2186892110340044,0.023487400738187558,0.2838687201493248
5.575931232091691,2.000435591822665,2.0389160531828345,1.492903092431992,-0.0663082460022191,1.3938498302274276,1.0522555250039431,-0.0011228362338147058,0.04854109424653727,-0.23195760074769556,0.18229379982017058,0.024028809251766203,0.2808858609481658
5.595988538681949,2.02826313913837,2.0599951646923307,1.492885478253094,-0.06528145802173485,1.3887517710328043,1.0555322473260844,-0.0006367323499680833,0.054126950008200295,-0.2778953587425903,0.14528136848384587,0.02458355097459597,0.2776598558275019
5.616045845272207,2.055979520237695,2.0811323704909945,1.4928776978388834,-0.06414361393781193,1.382732401300735,1.0580631280979689,-0.0001394253355563313,0.05964592070118211,-0.32407530328592093,0.10772119034829775,0.02514862158859188,0.2741986839385929
5.636103151862464,2.0835662658130594,2.1023126488166803,1.4928799771174592,-0.06289609795323409,1.3757876783726384,1.0598379051168436,0.0003692613440627879,0.06509338278163052,-0.3704173271387252,0.06968253873678698,0.02572101677566696,0.2705103244326983
5.656160458452723,2.1110048417251672,2.1235207865178563,1.492892544946754,-0.061540385145832016,1.3679151617347156,1.0608477016464222,0.0008894441371702921,0.07046487228871831,-0.4168413230620378,0.031234686972581915,0.02629773221773468,0.26660275646107834
5.67621776504298,2.1382766810458893,2.1447414067629276,1.4929156319128014,-0.06007803827682271,1.3591140130179469,1.061085026416884,0.0014211794056849802,0.07575608484464366,-0.4632671838168978,-0.0075530916210575505,0.02687576359670807,0.262483959174993
5.696275071633238,2.165363216101165,2.165958996749567,1.492949469128008,-0.05851070459914886,1.3493849959980897,1.0605437736248724,0.001964463425163876,0.08096287565462978,-0.509614802164339,-0.04661152372086397,0.027452106594501924,0.2581619117257016
5.7163323782234965,2.192245910513896,2.1871579354140445,1.4929942870294284,-0.056840112665818426,1.338730476595683,1.059219222933497,0.002519232384803116,0.08608125950692522,-0.5558040708653995,-0.085871336003573,0.028023756893028606,0.2536445932644645
5.736389684813754,2.2189062912468436,2.208322521140558,1.4930503141770384,-0.05506806913824422,1.3271544228760432,1.0571080394723318,0.0030853623874361746,0.0911074107728036,-0.6017548826811141,-0.12526325514592207,0.028587710174202252,0.2489399829425413
5.756446991404012,2.2453259806455237,2.229436999470564,1.493117776052008,-0.05319645559458337,1.3146624050492675,1.0542082738374177,0.00366266944953475,0.09603766340656383,-0.6473871303725218,-0.16471800782464685,0.029140962119935,0.24405605991119214
5.77650429799427,2.2714867284810993,2.250485590812098,1.49319689385497,-0.051227225338076644,1.3012615954702318,1.0505193620912592,0.004250909501210098,0.10086851094552993,-0.6926207067006573,-0.20416632071648255,0.02968050841214187,0.23900080332167667
5.796561604584528,2.2973704439932816,2.2714525181491156,1.4932878833042973,-0.04916240020538812,1.2869607686385893,1.0460421257628256,0.004849778386209702,0.10559660651005123,-0.737375504426558,-0.24353892049816395,0.030203344732735227,0.23378219232525482
5.8166189111747855,2.322959227933222,2.292322034750817,1.4933909534343757,-0.047004067374944704,1.2717703011987778,1.0407787718475552,0.005458911861921378,0.1102187628035023,-0.7815714163112597,-0.2827665338464289,0.030706466763628537,0.22840820607318663
5.836676217765043,2.3482354046064073,2.313078451880971,1.4935063053938724,-0.044754376175275515,1.255702171940008,1.0347328928073471,0.006077885599369726,0.11473195211228265,-0.8251283351157999,-0.32177988743801134,0.03118687018673527,0.2228868237167318
5.856733524355302,2.3731815539155563,2.333706166507251,1.4936341312440122,-0.042415534893351356,1.2387699617962742,1.0279094665705684,0.006706215183218345,0.11913330630581721,-0.867966153601214,-0.3605097079496473,0.031641550683970676,0.21722602440714994
5.876790830945559,2.3977805434035164,2.354189689010566,1.4937746127568512,-0.039989807582924454,1.2209888538463476,1.0203148565320497,0.0073433561117687285,0.12342011683655597,-0.9100047645285394,-0.39888672205807296,0.03206750393724578,0.21143378729570148
5.896848137535817,2.4220155602961593,2.3745136708943813,1.4939279202135467,-0.03747951087286759,1.2023756333137798,1.0119568115530884,0.00798870379696115,0.12758983473997434,-0.9511640606588108,-0.43684165644002393,0.032461725628475824,0.2055180915336458
5.916905444126075,2.4458701435452723,2.3946629324940556,1.4940942112026303,-0.03488701077551395,1.1829486875669026,1.0028444659614473,0.008641593564373329,0.13164007063457267,-0.9913639347530667,-0.47430523777223543,0.032821211439572506,0.1994869162722432
5.936962750716333,2.4693282158714607,2.414622490686167,1.4942736294182835,-0.03221471949499632,1.1627280061188248,0.9929883395513528,0.009301300653222544,0.13556859472187666,-1.0305242795723437,-0.5112081927314445,0.033142957052451516,0.19334824066275313
5.957020057306591,2.4923741158070367,2.4343775865978428,1.4944663034586072,-0.02946509223558685,1.1417351806274363,0.9824003375834987,0.009967040216362855,0.13937333678643715,-1.0685649878776782,-0.5474812479943867,0.033423958149023214,0.18711004385643587
5.977077363896848,2.514992629738921,2.4539137133160875,1.4946723456238957,-0.02664062401003629,1.1199934048954048,0.9710937507850415,0.010637967320287434,0.1430523861958302,-1.1054059524301052,-0.583055130237796,0.03366121041120351,0.180780305004551
5.997134670487107,2.5371690239515323,2.4732166435971155,1.4948918507149105,-0.02374384644791376,1.0975274748701782,0.9590832553496054,0.011313176945127679,0.14660399190065693,-1.1409670659906634,-0.6178605661384107,0.033851709520905215,0.17436700325835847
6.017191977077364,2.5588890766696886,2.492272457575677,1.4951248948311515,-0.020777324603945952,1.0743637886439845,0.9463849129372792,0.011991703984653102,0.15002656243454407,-1.1751682213203862,-0.6518282823729638,0.033992451160042014,0.16787811776911815
6.037249283667622,2.5801391101014985,2.5110675704743888,1.4953715341691298,-0.017743653766356938,1.0505303464538298,0.933016170674617,0.012672523246271883,0.153318665914143,-1.2079293111803104,-0.6848890056181904,0.03408043101052782,0.16132162768808997
6.05730659025788,2.6009060224812606,2.5295887603130636,1.495631803820642,-0.014645456265207364,1.0260567506814984,0.918995861154636,0.01335454945102943,0.1564790300391306,-1.2391702283314774,-0.7169734625508322,0.03411264475427367,0.15470551216653383
6.077363896848138,2.6211773201123547,2.5478231956180397,1.495905716571042,-0.011485378280734121,1.0009742058535562,0.9043442024368225,0.014036637233610483,0.15950654209220905,-1.268810865534919,-0.7480123798476188,0.03408608807319613,0.14803775035570937
6.097421203438396,2.640941149410141,2.5657584631315085,1.4961932616975135,-0.008266086651689916,0.9753155186413476,0.8890827980471265,0.014717581142337899,0.16240024893910548,-1.2967711155516715,-0.7779364841852865,0.03399775664920712,0.14132632140687676
6.117478510028654,2.660186328944855,2.5833825955208463,1.4964944037673424,-0.0049902656836824585,0.9491150978609948,0.8732346369779613,0.015396115639172203,0.1651593570285724,-1.3229708711427768,-0.8066765022405766,0.03384464616421923,0.1345792044712957
6.137535816618912,2.6789023814844994,2.6006840990879407,1.4968090814361907,-0.0016606139575143924,0.9224089544734015,0.8568240936882081,0.01607091509971248,0.1677832323923873,-1.3473300250692648,-0.8341631606902169,0.03362375230014791,0.12780437870022607
6.157593123209169,2.697079566037748,2.6176519814785246,1.49713720624637,0.001720158862477672,0.8952347015842488,0.8398769281032124,0.016740593813196813,0.17027140064535312,-1.3697684700921746,-0.8603271862109492,0.03333207073890487,0.12100982324492775
6.177650429799427,2.71470890989683,2.6342757793914977,1.4974786614251103,0.00514933522008322,0.8676315544439992,0.8224202856147853,0.017403705982500517,0.17262354698529783,-1.390206098972544,-0.8850993054795069,0.03296659716240424,0.11420351725666064
6.1977077363896855,2.7317822406804355,2.650545586288265,1.4978333006828377,0.008624192858878707,0.8396403304478914,0.8044826970812027,0.01805874572413746,0.17483951619307467,-1.408562804471408,-0.9084102451726253,0.03252432725256005,0.10739343988668469
6.217765042979943,2.7482922183766068,2.6664520801020606,1.4982009470114446,0.012142008013887914,0.8113034491359468,0.7860940788272055,0.018704147068259624,0.17691931263256214,-1.424758479349803,-0.9301907319670406,0.0320022566912852,0.1005875702862596
6.237822349570201,2.7642323673856337,2.6819865509472773,1.4985813914825625,0.015700058603242258,0.7826649321929642,0.7672857326440015,0.019338283958658664,0.17886310025066376,-1.438713016368766,-0.9503714925394895,0.031397381160492954,0.09379388760664532
6.257879656160459,2.7795971085629496,2.6971409288287953,1.498974392045835,0.01929562741984171,0.7537704034485202,0.748090345789262,0.019959470252762346,0.18067120257730834,-1.4503463082893342,-0.9688832535667058,0.030706696342096773,0.08702037099910175
6.277936962750717,2.794381791262028,2.711907811351316,1.4993796723271906,0.022926005323014857,0.7246670888769742,0.7285419909871242,0.02056595972163766,0.18234410272544993,-1.4595782478725416,-0.9856567417254263,0.029927197918010795,0.08027499961488876
6.2979942693409745,2.808582725377276,2.7262804914286862,1.4997969204271162,0.026588494430179837,0.6954038165974619,0.7086761264281907,0.021155946049991048,0.18388244339106774,-1.4663287278794277,-1.0006226836923866,0.029055881570148823,0.07356575260526613
6.318051575931233,2.822197213386933,2.74025298499323,1.5002257877189282,0.030280411308504396,0.6660310168739003,0.6885295957695297,0.021727562836164616,0.18528702685316617,-1.4705176410710283,-1.0137118061443235,0.02808974298042166,0.06690060912149386
6.338108882521491,2.8352235823959635,2.7538200587050774,1.5006658876470471,0.033999090166566846,0.6366007221149839,0.6681406281346738,0.02227888359214103,0.1865588149737749,-1.4720648802083782,-1.024854835757971,0.02702577783074589,0.060287548314831726
6.358166189111748,2.8476612161789534,2.7669772576614937,1.5011167945252692,0.0377418860460161,0.6071665668741875,0.6475488381136221,0.02280792174354085,0.18769892919794853,-1.4708903380525171,-1.0339824992100675,0.025860981803032868,0.05373454933653973
6.378223495702006,2.8595105872230073,2.7797209331062085,1.5015780423350393,0.04150617801323264,0.577783787849766,0.6267952257628377,0.023312630629621856,0.1887086505537673,-1.466913907364476,-1.041025523177344,0.024592350579197453,0.04724959133787762
6.398280802292264,2.870773288770641,2.7920482701387463,1.5020491235237237,0.04528937235098876,0.5485092238847509,0.6059221766052492,0.023790903503280836,0.1895894196523362,-1.460055480905297,-1.0459146343365413,0.023216879841151977,0.04084065347010521
6.418338108882522,2.8814520668626797,2.8039573154237543,1.5025294878028839,0.04908890575010893,0.519401315966955,0.584973461630252,0.024240573531052467,0.19034283668778576,-1.4502349514360153,-1.0485805593643933,0.021731565270810133,0.034515714884482546
6.43839541547278,2.891550852381152,2.815447004900331,1.503018540946547,0.052902248501130705,0.49052010722897155,0.5639942372937052,0.02465941379311065,0.19097066143727154,-1.437372211717666,-1.0489540249376341,0.02013340255008658,0.028282754732269433
6.458452722063038,2.901074793092187,2.8265171914913587,1.5035156435894814,0.05672690768596485,0.4619272429481702,0.5430310455179335,0.025045137283266294,0.19147481326097432,-1.4213871545112855,-1.0469657577330007,0.018419387360893158,0.022149752164725714
6.478510028653296,2.9100302856889084,2.8371686728128305,1.504020110025467,0.06056043036955612,0.4336859705467013,0.5221318136917268,0.02539539690896908,0.19185737110210008,-1.4021996725779107,-1.042546484427229,0.016586515385144524,0.01612468633311119
6.498567335243553,2.918425007834331,2.847403218883178,1.50453120700557,0.06440040679154349,0.4058611395914946,0.5013458546703413,0.0257077854913077,0.19212057348688003,-1.3797296586785817,-1.0356269316970554,0.014631782304752095,0.010215536388685872
6.518624641833811,2.9262679502042555,2.857223599832605,1.5050481525364143,0.06824447355792096,0.37851920179425935,0.48072386677549694,0.02597983576500784,0.1922668185245705,-1.3538970055743293,-1.026137826219216,0.012552183801632089,0.004430281482709658
6.5386819484240695,2.9335694485301653,2.8666336136124144,1.5055701146784544,0.07209031683269787,0.3517282110114821,0.46031793379538,0.0262090203784342,0.19229866390745315,-1.3246216060261906,-1.0140098946704412,0.010344715557697337,-0.0012230992335577756
6.558739255014327,2.9403412156421203,2.875638113704335,1.506096210344249,0.07593567552955935,0.3255578232444316,0.44018152498464147,0.026392751893589805,0.19221882691083467,-1.291823352795206,-0.9991738637274734,0.008006373254860089,-0.006736626608856308
6.578796561604585,2.9465963735116554,2.8842430368298553,1.5066255040967331,0.07977834450352708,0.3000792966391539,0.4203694950643979,0.026528382786115356,0.1920301843930471,-1.2554221386424105,-0.9815604600670469,0.005534152575033202,-0.012102321491926443
6.598853868194843,2.9523494852946714,2.8924554306595494,1.5071570069474904,0.08361617774261944,0.27536549148647493,0.4009380842222323,0.026613205445290555,0.1917357727954475,-1.2153378563288384,-0.9611004103658942,0.002925049200132701,-0.01731220473150788
6.618911174785101,2.9576165873743365,2.90028348152241,1.5076896751550275,0.08744709155951239,0.25149087022199934,0.3819449181121892,0.02664445217403255,0.1913387881424184,-1.1714903986155292,-0.9377244413007544,0.0001760588120700568,-0.022358297176340955
6.638968481375358,2.962415221403976,2.907736542115173,1.508222409023045,0.09126906778319964,0.22853149742611256,0.36344900785478407,0.026619295188898162,0.1908425860413673,-1.1237996582635168,-0.911363279548361,-0.002715822907240373,-0.02723261967516577
6.659025787965617,2.966764466349974,2.9148251592116505,1.5087540516987112,0.09508015695065344,0.20656503982397734,0.34551075003699294,0.026534846620080987,0.1902506816827269,-1.0721855280338393,-0.8819476517854514,-0.005753600275886006,-0.03192719307672254
6.679083094555875,2.9706849705346614,2.921561101372058,1.5092833879709353,0.09887848149848479,0.18567076628553725,0.32819192671225883,0.026388158511413184,0.18956674983995525,-1.0165679006875346,-0.8494082846887618,-0.008940277611953151,-0.03643403822975122
6.699140401146132,2.974198983679219,2.9279573866523454,1.509809143068638,0.10266223895460422,0.16592954782551406,0.3115557054004907,0.026176222820366135,0.18879462486953552,-0.9568666689856333,-0.8136759049350246,-0.01227885923352634,-0.04074517598299206
6.71919770773639,2.977330388946569,2.9340283103135247,1.5103299814590272,0.10642970512988224,0.14742385760341037,0.29566663908806046,0.025895971418048225,0.18793830071097595,-0.8930017256891816,-0.7746812392009805,-0.015772349458695878,-0.04485262718518519
6.739255014326648,2.980104734984271,2.9397894725310008,1.510844505645869,0.11017923730980952,0.13023777092350475,0.28059066622780926,0.025544276089207285,0.18700193088681016,-0.8248929635592077,-0.7323550141633604,-0.019423752605545186,-0.04874841268507067
6.759312320916906,2.9825492679674186,2.945257806103899,1.5113512549677606,0.11390927744615793,0.11445696523485926,0.266395110739039,0.02511794853222815,0.18598982850259693,-0.75246027535675,-0.686627956498902,-0.02323607299216235,-0.05242455333138869
6.7793696275071635,2.9846929636415336,2.9504516041643956,1.511848704396403,0.11761835534864058,0.10016872013131128,0.2531486820075206,0.02461374035913466,0.18490646624692014,-0.6756235538428479,-0.6374307928843423,-0.02721231493663323,-0.05587306997287937
6.799426934097422,2.9865665593654636,2.955390547887048,1.5123352633348754,0.1213050918765727,0.0874619173514819,0.24092147488548799,0.024028343095589766,0.18375647639138903,-0.5943026917785339,-0.5846942499964154,-0.031355482757044584,-0.05908598345828279
6.81948424068768,2.9882025861542747,2.9600957341981213,1.512809274415905,0.12496820213053163,0.07642704077876661,0.22978496969164275,0.023358388180892975,0.18254465079063792,-0.5084175819248475,-0.5283490545118603,-0.03566858077148405,-0.062055314636339114
6.839541547277937,2.9896354007221504,2.964589703484921,1.513269012300142,0.12860649864401802,0.06715617644134309,0.2198120322111472,0.022600446967982912,0.18127594088232626,-0.41788811704282214,-0.468325933107403,-0.04015461329803438,-0.06477308435578838
6.859598853868196,2.9909012175252845,2.968896467305119,1.5137126824744325,0.13221889457511582,0.059743012512169846,0.21107691369563408,0.02175103072343698,0.1799554576871389,-0.3226341898934999,-0.4045556124597942,-0.04481658465478766,-0.06723131346537098
6.879656160458453,2.9920381408047785,2.973041536096085,1.5141384200500891,0.13580440689815276,0.05428283930897848,0.2036552508631988,0.020806590627469812,0.17858847180878562,-0.22257569323791504,-0.33696881924575806,-0.049657499159827534,-0.0694220228138268
6.899713467048711,2.9930861966295352,2.9770519468842163,1.5145442885611666,0.1393621595953613,0.050872549294288305,0.1976240658984021,0.019763517773934813,0.1771804134340018,-0.11763251983709822,-0.26549628014203375,-0.054680361131238975,-0.07133723324989605
6.919770773638969,2.994087364939156,2.9809562909942637,1.514928278762732,0.14289138684853867,0.049610637075390374,0.1930617664522708,0.01861814317032373,0.17573687233254753,-0.007724562452089856,-0.1900687218253525,-0.05988817488710918,-0.07296896562231854
6.939828080229227,2.9950856115868376,2.9847847417586664,1.5152883074291392,0.14639143623070763,0.05059719940435825,0.19004814564229655,0.01736673773776687,0.17426359785720846,0.10722828615606872,-0.11061687097246065,-0.0652839447455289,-0.07430924077983501
6.959885386819485,2.996126920382263,2.988569082226875,1.5156222161523005,0.1498617718977768,0.0539339351780469,0.18866438205243563,0.016005512311032033,0.1727664989437953,0.22730613322634774,-0.02707145426008495,-0.07087067502457955,-0.07535007957118522
6.979942693409742,2.997259325134503,2.9923427328746857,1.5159277701399612,0.15330197778020146,0.05972414543808613,0.18899303973311077,0.01453061763852559,0.17125164411114396,0.3525890859977103,0.06063680163503271,-0.07665137004235145,-0.07608350284510934
7.0,2.9985329416949065,2.9961407793135675,1.5162026570139695,0.1567117607746437,0.06807273337088757,0.19111806820120936,0.012938144382291919,0.16972526146111558,0.4831572517091143,0.15257717003616023,-0.0826290341169269,-0.07650153145034755
