time,pos_x,pos_y,pos_z,yaw,vel_x,vel_y,vel_z,vel_yaw,acc_x,acc_y,acc_z,acc_yaw
0.0,0.0,0.0,1.5000000000000093,0.0,0.0,0.0,0.0,0.0,0.0,0.0,0.0,0.0
0.020080321285140562,1.5059465034289257e-05,7.632100453412748e-06,1.4999934096652794,1.4023387227353894e-05,0.0022466245894689524,0.001139662190317531,-0.000983128873656363,0.0020906651210927294,0.22220906379097288,0.11293769893493959,-0.09723098109201049,0.20650417569391258
0.040160642570281124,0.00011851751453274805,6.0235631903501396e-05,1.4999481409584705,0.00011014223363591127,0.008791354341194988,0.0044767782419375965,-0.0038464351720124417,0.00815892480848419,0.42986689601535705,0.2197659405508811,-0.18804135143348327,0.3978220184969785
0.060240963855421686,0.00039344855734305963,0.00020054600188076802,1.4998278650096541,0.00036489618872031945,0.019346547411225247,0.009890392273717893,-0.008462923217852534,0.017904806116383766,0.6233117754110433,0.32060805137159043,-0.27257276480354864,0.5743288996118291
0.08032128514056225,0.0009172418211814286,0.00046890416559762206,1.4995987645316897,0.0008489005172999401,0.03363132753036467,0.017262014934991438,-0.014708430409539668,0.031035843523053455,0.8028819807159231,0.41558735792083346,-0.3509668749813155,0.7364001902410956
0.10040160642570281,0.001761736664127736,0.000903305956557886,1.499229477158713,0.0016269962479999003,0.051371584004176074,0.026475623405566563,-0.022461627221017827,0.047267078930807914,0.9689157906678865,0.5048271867223758,-0.42336533574592483,0.8844112615874091
0.12048192771084337,0.002993357886120698,0.0015394514171663029,1.498691038784626,0.0027584003217321473,0.07229997171298,0.037417661395726914,-0.031604017201815944,0.06632106166601437,1.1217514840048248,0.5884508642999834,-0.48990980087651037,1.0187374848534005
0.14056224899598393,0.004673251040453019,0.002410794129338041,1.4979568269015837,0.004296855740176498,0.09615591111185487,0.04997703914623145,-0.04201993697704479,0.0879278484790927,1.2617273394646291,0.6665817171774222,-0.5507419241521776,1.1397542312417022
0.1606425702811245,0.006857417745266549,0.0035485905451082007,1.4970025039384829,0.0062907817142616946,0.12268558823063684,0.06404513342831444,-0.053596556247397883,0.11182500354451536,1.38918163578519,0.739343071878458,-0.6060033593520638,1.247836871954944
0.18072289156626506,0.009596850995047439,0.004981949317241319,1.4958059605994507,0.008783423812646449,0.15164195467392005,0.07951578754368549,-0.06622387778915034,0.13775759846080754,1.504452651704398,0.8068582549268564,-0.655835760255294,1.3433607781957573
0.20080321285140562,0.01293767047212131,0.006737880629840888,1.4943472592023337,0.011813004110200517,0.18278472762105633,0.09628531132452954,-0.07979473745415912,0.16547821225054699,1.6078786659601443,0.8692505928463834,-0.7003807806409985,1.426701321166774
0.22088353413654618,0.016921257858148384,0.008841345528958839,1.492608577017185,0.015412871336485723,0.21588038982615532,0.11425248113350678,-0.09420480416986723,0.19474693136036403,1.6997979572903203,0.9266434121608048,-0.7397800742883003,1.4982338720706252
0.24096385542168675,0.021584392145618664,0.011315305253205064,1.4905741496047535,0.019611651024237026,0.25070218961808466,0.1333185398637528,-0.10935257993929581,0.22533134966094182,1.7805488044328168,0.9791600393938868,-0.7741752949763199,1.5583338021099422
0.26104417670682734,0.026959384949347083,0.014180770564356932,1.4882302141549708,0.02443339565784358,0.2870301409004694,0.15338719693887842,-0.12513939984105207,0.2570065684470157,1.8504694861255242,1.0269238010693948,-0.8037080964841896,1.6073764824873555
0.28112449799196787,0.03307421581796865,0.017456851077968762,1.4855649528254407,0.029897734821829773,0.324651023151693,0.17436462831296992,-0.14146943202932372,0.28955519643737426,1.9098982811063339,1.070058023711095,-0.8285201325910374,1.6457372844054976
0.3012048192771084,0.039952667545433626,0.02116080459398137,1.482568436079928,0.03602002534933628,0.3633583814248961,0.19615947647058865,-0.15824967773388154,0.32276734977485805,1.9591734681131359,1.1086860338427527,-0.8487530570759833,1.6737915790669975
0.321285140562249,0.04761446148250264,0.025308086427331525,1.4792325660268468,0.04281150147060111,0.4029525263479776,0.21868285042677152,-0.17538997126007816,0.35644065202636077,1.9986333258838216,1.142931157988134,-0.8645485237181575,1.6919147376744887
0.3413654618473896,0.05607539284824192,0.029912398738561528,1.475551019757747,0.050279424961440694,0.4432405341235942,0.24184832572703066,-0.19280297998884977,0.39038023418282847,2.028616133156281,1.1729167226710042,-0.8760481862966848,1.7004821314306002
0.3614457831325301,0.06534746604151838,0.03498573986442864,1.4715191926858047,0.05842723529173091,0.4840362465291602,0.2655719444473535,-0.21040420437671503,0.4243987346592599,2.0494601686684075,1.1987660544151302,-0.8833936985906934,1.6998691315379657
0.38152610441767065,0.07543902995249477,0.04053845364851464,1.4671341418843094,0.0672546997738881,0.5251602709168477,0.2897722151942027,-0.22811197795577504,0.4583162992947064,2.06150371115809,1.2206024797442772,-0.8867267143793082,1.6904511091992145
0.40160642570281124,0.08635491327412491,0.046579278771835306,1.4623945294251532,0.07675806371135019,0.5664399802135868,0.31437011310451646,-0.24584746733371277,0.49196058135227194,2.0650850393632187,1.238549325182211,-0.8861888874416536,1.6726034356169786
0.42168674698795183,0.09809655981364879,0.053115398083449936,1.4573005657173188,0.08693020054705768,0.6077095129210655,0.3392890798457082,-0.2635346721937936,0.5251667415191132,2.0605424320216863,1.2527299172526978,-0.8819218715568611,1.646701481993889
0.44176706827309237,0.11066216380408772,0.06015248793107087,1.4518539528453673,0.09776076201193483,0.6488097731157291,0.36445502361566656,-0.2811004252948668,0.5577774479064395,2.0482141678713828,1.2632675824795028,-0.8740673205040477,1.6131206195325771
0.4618473895582329,0.12404680521573952,0.06769476749167294,1.446057827907927,0.10923632827337049,0.6895884304487817,0.3897963191427557,-0.29847439247136276,0.5896428760495126,2.0284385256501993,1.2702856473863924,-0.8627668880623494,1.5722362194356738
0.4819277108433735,0.13824258506767362,0.07574504810210303,1.4399167063561822,0.1213405580836993,0.7298999201461838,0.4152438076858146,-0.3155890726332957,0.6206207089076466,2.001553784096026,1.2739074384971323,-0.8481622280108847,1.5244236529058108
0.5020080321285141,0.1532387607392262,0.08430478258968951,1.4334364253323602,0.1340543389286827,0.769605443008655,0.4407307970341582,-0.3323797977662608,0.6505761368642091,1.9678982219467545,1.274256282335488,-0.8303949941287863,1.4700582911456186
0.5220883534136547,0.1690218812814957,0.09337411460285194,1.4266240870082223,0.14735593717599016,0.8085729654116723,0.46619306150757656,-0.3487847329314368,0.6793818577266199,1.9278101179402758,1.2714555054252257,-0.8096068401951764,1.409515505357729
0.5421686746987951,0.18557592272883727,0.10295192794171029,1.419488001923549,0.16122114822367986,0.8466772193054706,0.4915688419563349,-0.36474487626558544,0.7069180767263512,1.8816277508144807,1.2656284342901114,-0.7859394199891814,1.3431706667447734
0.5622489959839357,0.20288242341035861,0.11303589588869467,1.412037632324629,0.17562344664868007,0.8837997022150423,0.5167988457611739,-0.3802040589810489,0.7330725065189281,1.8296893993072594,1.2568983954539104,-0.7595343872899287,1.271399146509382
0.5823293172690763,0.22092061926141476,0.1236225305391547,1.404283535502751,0.19053413635527006,0.9198286772401376,0.5418262468333093,-0.39510894536575497,0.7577403671839279,1.772333342156503,1.2453887154403884,-0.7305333958765439,1.1945763158541864
0.6024096385542168,0.2396675791351033,0.13470723213196908,1.3962373071326863,0.2059225007235611,0.954659173055265,0.5665966856144324,-0.40940903278321106,0.7808243862249812,1.7098978581001036,1.2312227207733122,-0.6990780995281514,1.1130775459818187
0.6224899598393574,0.25909834011375965,0.14628433838015517,1.3879115246111826,0.22175595275797777,0.9881929839096902,0.5910582690767099,-0.42305665167250867,0.8022347985697704,1.6427212258759507,1.214523737976447,-0.6653101520238827,1.0272782080949094
0.642570281124498,0.279186042820452,0.15834717380147828,1.3793196903954483,0.23800018523573865,1.0203386696274372,0.6151615707227835,-0.43600696554832136,0.8218893465700313,1.5711417242219357,1.1954150935735586,-0.6293712071428563,0.9375536733960896
0.6626506024096386,0.2999020667304768,0.17088809904906138,1.3704761753416435,0.25461932085533767,1.051011555607288,0.6388596305857707,-0.4482179710009054,0.8397132800015523,1.49549763187595,1.1740201140884134,-0.5914029186642058,0.8442793130879911
0.6827309236947792,0.32121616548285353,0.1838985602419946,1.3613961620433672,0.271576062385025,1.0801337328227814,0.6621079552292635,-0.45965049769609956,0.8556393560641734,1.4161272275758834,1.150462126044776,-0.5515469403670552,0.7478304983732441
0.7028112449799196,0.34309660219182003,0.19736913829594457,1.3520955881701449,0.28883184281128815,1.1076340578222152,0.6848645177473301,-0.47026820837532524,0.8696078393817885,1.3333687900596272,1.1248644559664132,-0.509944926030526,0.6485826004544807
0.7228915662650602,0.3655102847583277,0.21128959825376406,1.3425910898059195,0.30634697548733303,1.1334481527286446,0.7070897577645137,-0.48003759885558595,0.8815665020023434,1.2475605980650726,1.097350430377091,-0.46673852943375005,0.546910990534332
0.7429718875502008,0.3884229011815368,0.22564893861610147,1.3328999447875365,0.324080804281565,1.157518405239882,0.7287465814358325,-0.4889279980294675,0.8914706233978367,1.1590409303301104,1.0680433758005745,-0.42206940435585194,0.4431910398154292
0.7630522088353413,0.4117990548703112,0.2404354406720104,1.3230400160432343,0.34199185372607005,1.1797939686284988,0.7498003614467805,-0.4969115678651398,0.8992829904643199,1.0681480655926305,1.0370666187606297,-0.37607920457595734,0.33779811950040206
0.7831325301204819,0.43560239995471384,0.2556367178295588,1.3130296949311326,0.36003797916509533,1.200230761741823,0.7702189370133266,-0.5039633034063534,0.9049738975218962,0.9752202825905252,1.0045434857810225,-0.32890958387319214,0.23110760079188375
0.8032128514056225,0.45979577659750176,0.2712397649464392,1.30288784457772,0.3781765169035311,1.2187914690019417,0.7899726138819154,-0.5100610327724425,0.9085211463147229,0.8805958600616852,0.9705973033855195,-0.2807021960266831,0.12349485489250545
0.8232931726907631,0.4843413463056214,0.28723100766057735,1.2926337432163422,0.3963644343553909,1.2354455404056985,0.8090341643294666,-0.5151854171583233,0.9099100460110083,0.7846130767440007,0.9353513980978856,-0.23159869481555728,0.015335253004897353
0.8433734939759037,0.5092007272417035,0.30359635172074234,1.2822870275256908,0.4145584801922931,1.2501691915246953,0.8273788271633751,-0.5193199508344947,0.9091334132030147,0.6876102113753622,0.8989290964418866,-0.1817407340189383,-0.0929958336683101
0.8634538152610441,0.5343351295355588,0.32032123231715603,1.2718676359682923,0.432715334491942,1.2629454035052925,0.8449843077215115,-0.5224509611470384,0.9061915719070562,0.5899255426936623,0.8614537249412889,-0.13126996741595365,-0.20112303392448339
0.8835341365461847,0.5597054905956724,0.33739066341210217,1.2613957521289947,0.4507917588866084,1.2737639230686073,0.8618307778722212,-0.5245676085176177,0.9010923535634998,0.4918973494367902,0.8230486101198579,-0.08032804878573208,-0.3086709765609925
0.9036144578313253,0.5852726104206993,0.35478928707053625,1.250891748053458,0.468744746711611,1.2826212625105156,0.8779008760143253,-0.5256618864434802,0.8938510970367651,0.393863910342638,0.78383707850136,-0.029056631907394825,-0.4152642903752066
0.9236947791164658,0.6109972869109603,0.3725014227906953,1.2403761275866407,0.48653167315379786,1.2895206997016504,0.8931797070771202,-0.525728621497454,0.8844906486153243,0.29616350414909576,0.74394245660956,0.022402629439927102,-0.5205276041644937
0.9437751004016064,0.6368404511799353,0.39051111683470635,1.2298694697112886,0.5041104454000264,1.294472278087403,0.9076548425203776,-0.5247654733279508,0.8730413620117025,0.1991344095940546,0.703488070968225,0.07390808147711048,-0.6240855467262232
0.963855421686747,0.6627633028657605,0.4088021915591972,1.2193923718864248,0.5214396527856454,1.297492806687922,0.9213163203343442,-0.5227729346589647,0.8595410983624768,0.10311490541540547,0.6625972481011198,0.12531807042502896,-0.7255627468577643
0.9839357429718876,0.6887274454427224,0.42735829474590514,1.208965393385835,0.5384787169429759,1.298605860098114,0.9341566450397423,-0.5197543312900723,0.8440352262282772,0.008443270351038645,0.6213933145320103,0.17649094250455444,-0.8245838333564846
1.0040160642570282,0.7146950215327527,0.4461629489322864,1.1986089986365593,0.5551880419497914,1.2978417784876448,0.9461707876877696,-0.5157158220964326,0.8265766215937871,-0.08454221686115293,0.5799995967846634,0.22728504393656213,-0.9207734350197532
1.0240963855421688,0.7406288482169252,0.46519960074212663,1.188343500557377,0.5715291644778004,1.2952376676009352,0.957356185860099,-0.5106663990287872,0.8072256678677412,-0.17550327748328032,0.538539421382844,0.27755872094192635,-1.0137561806449389
1.0441767068273093,0.7664925523469487,0.4844516702161489,1.178189003897298,0.5874649039411262,1.2908373987571662,0.9677127436688785,-0.5046178871134603,0.7860502558829274,-0.2641016327774528,0.49713611485031795,0.32717031974151967,-1.1031566990294115
1.0642570281124497,0.7922507058566634,0.5039026001426243,1.1681653485740495,0.6029595126447882,1.284691608850276,0.9772428317567321,-0.49758494445235923,0.7631257838961868,-0.3499990040057783,0.4559130037108514,0.3759781865562176,-1.1885996189705383
1.0843373493975903,0.8178689610735358,0.5235359053879814,1.1582920530125644,0.6179788259331835,1.2768577003489605,0.9859512872967582,-0.48958506222297227,0.7385351575884127,-0.43285711243036773,0.4149934144882095,0.4238406676068911,-1.26970956926569
1.104417670682731,0.8433141860301543,0.5433352222274151,1.148588257483471,0.6324904123385677,1.267399841296672,0.9938454139925309,-0.4806385646783713,0.71236879006455,-0.512337679313327,0.3745006737061596,0.470616109114417,-1.346111178712233
1.1244979919678715,0.8685545997757234,0.5632843576754969,1.139072667441579,0.6464637237295353,1.2563889653116238,1.0009349820781002,-0.47076860914721075,0.684724601853598,-0.5881024259167686,0.33455810788846585,0.516162857299667,-1.4174290761075383
1.144578313253012,0.8935599076875596,0.5833673388167835,1.1297634968643702,0.6598702454595016,1.2439027715867843,1.0072322283179906,-0.4600011860337272,0.6557080209086076,-0.6598130735028012,0.2952890435588942,0.5603392583835163,-1.4832878902489741
1.1646586345381527,0.9183014367825866,0.6035684621364275,1.1206784115904855,0.6726836465151835,1.2300257248898805,1.012751856007202,-0.4483651188177402,0.6254319826066823,-0.72713134333353,0.25681680724121225,0.6030036585868386,-1.5433122499339071
1.1847389558232932,0.94275227102883,0.6238723428507857,1.1118344726582134,0.6848799296650806,1.2148490555633975,1.0175110349712102,-0.43589206405465153,0.5940169297489786,-0.7897189566710703,0.2192647254591833,0.6440144041305053,-1.5971267839597096
1.2048192771084336,0.9668873866569125,0.6442639642380297,1.1032480796439792,0.6964375816079558,1.1984707595245783,1.0215294015659655,-0.422616511375445,0.5615908125607056,-0.8472376347775266,0.1827561247365752,0.6832298412353941,-1.6443561211237476
1.2248995983935742,0.9906837874715498,0.6647287269687543,1.094934914000832,0.707337723121317,1.180995598265423,1.0248290586778943,-0.4085757834866881,0.5282890886911247,-0.8993490989150081,0.1474143315971539,0.7205083161223772,-1.6846248902233902
1.2449799196787148,1.0141206401630447,0.6852524984365881,1.0869098823969336,0.7175642592098977,1.1625350988526901,1.027434575723898,-0.39381003617053034,0.49425472321355024,-0.9457150703456275,0.11336267256468269,0.7557081750123258,-1.7175577200560088
1.2650602409638554,1.0371794096187827,0.705821662088802,1.0791870600540476,0.7271040292541384,1.1432075539278963,1.0293729886513532,-0.3783622582847026,0.45963818862534866,-0.9859972703314901,0.08072447416293083,0.7886877641261181,-1.7427792394189683
1.285140562248996,1.0598439942347275,0.7264231667569196,1.0717796340860266,0.7359469571586672,1.1231380217073148,1.0306737999381115,-0.3622782717625206,0.4245974648479399,-1.019857420134707,0.0496230629156621,0.8193054296846256,-1.7599140771096407
1.3052208835341366,1.0821008612269158,0.7470445759873262,1.064699846837302,0.7440862015007813,1.1024583259819782,1.0313689785925015,-0.34560673161288036,0.38929803922679596,-1.0469572410173877,0.02018176534664151,0.8474195179087214,-1.768586861925394
1.3253012048192772,1.1039391819429525,0.7676741173718781,1.0579589392213704,0.7515183056789279,1.0813070561176756,1.0314929601533245,-0.32839912592026166,0.35391290653144125,-1.06695845424164,-0.007476092020363478,0.8728883750192804,-1.7684222226635953
1.3453815261044177,1.1253509671735058,0.7883007318785127,1.0515670940592834,0.758243348061185,1.0598295670549547,1.0310826466898586,-0.31070977584472725,0.31862256895545316,-1.0795227810695724,-0.03322718266158653,0.8955703472371768,-1.759044788121614
1.3654618473895583,1.1463312024638024,0.8089141231818577,1.0455333794181354,0.7642650921337429,1.0381779793091206,1.0301774068018579,-0.2925958356219205,0.283615036116462,-1.084311942763296,-0.05694818005326341,0.915323780783283,-1.7400791870968209
1.3855421686746987,1.1668779834251226,0.8295048069938405,1.0398656919495526,0.7695911366493848,1.016511178970237,1.0288190756195503,-0.2741172925630684,0.24908582505614985,-1.0809876605849194,-0.07851575767162783,0.932007021878474,-1.7111500483865825
1.4056224899598393,1.1869926510462958,0.8500641603942978,1.0345707002281799,0.7742330657759684,0.9949948177031237,1.0270519548036399,-0.25533696705498166,0.21523796024025232,-1.0692116557965505,-0.09780658899291299,0.9454784167436237,-1.6718820007882695
1.4257028112449799,1.2066799270051956,0.8705844711615854,1.0296537880901713,0.7782065992449064,0.9738013127473608,1.024922812545306,-0.23632051256005138,0.18228197355855735,-1.048645649660299,-0.11469734749335442,0.9555963115996047,-1.621899673099248
1.4457831325301205,1.225948048980234,0.891058987103187,1.025118997971676,0.781531742499648,0.953109846917284,1.0224808835662031,-0.21713641561625208,0.15043590432490472,-1.0189513634382767,-0.12906470664918634,0.9622190526672907,-1.5608276941168913
1.465863453815261,1.244808905961858,0.9114819653863248,1.020968974247329,0.7842329368441592,0.9331063686019874,1.0197778691184607,-0.1978559958371422,0.11992529927718809,-0.9797905183925865,-0.14078533993664072,0.9652049861675596,-1.488290692638562
1.4859437751004017,1.2632781735640433,0.9318487218685675,1.0172049065687372,0.7863392095914049,0.9139835917653236,1.016867936984685,-0.1785534059118603,0.09098321257735287,-0.9308248357853446,-0.14973592083195497,0.964412458321279,-1.4039132974616346
1.5060240963855422,1.2813754493357914,0.9521556804284413,1.0138264732029698,0.7878843242118293,0.895940995945903,1.0138077214779555,-0.159305631605129,0.06385020581139722,-0.8717160368786545,-0.15579312281135937,0.9596998153493272,-1.3073201373834735
1.5261044176706826,1.2991243880726224,0.9724004222960385,1.0108317843710453,0.7889069304818372,0.8791848262570933,1.0106563234418284,-0.14019249175725246,0.03877434798937274,-0.8021258429346303,-0.15883361935109352,0.9509254034725743,-1.1981358412014527
1.5461847389558232,1.3165528371280724,0.9925817353836275,1.0082173255864204,0.7894507146322748,0.8639280933870197,1.0074753102503347,-0.12129663828411863,0.01601121554538265,-0.7217159752153748,-0.15873408392738564,0.9379475689118992,-1.0759850377129352
1.5662650602409638,1.3336929717251864,1.0126996636162617,1.0059779009934782,0.7895645494969106,0.8503905735985657,1.0043287158079812,-0.10270355617719684,-0.004176107662416995,-0.6301481549830044,-0.15537119001647404,0.9206246578881716,-0.9404923557152931
1.5863453815261044,1.3505814302680155,1.0327555562623898,1.0041065767060164,0.7893026446609176,0.838798808729373,1.001283040549749,-0.08450156350353943,-0.02151703035181729,-0.5270841034996221,-0.14862161109459038,0.8988150166222679,-0.7912824240058947
1.606425702811245,1.3672594496531112,1.0527521172644643,1.0025946241457362,0.7887246966093525,0.8293861061918401,0.9984072514410953,-0.06678181140578182,-0.035733453816556904,-0.41218554202734126,-0.13836202063797165,0.8723769913350568,-0.6279798713821099
1.6265060240963856,1.38377300058102,1.0726934545695523,1.0014314633807302,0.7878960388756385,0.8223925389731248,0.995772781977954,-0.04963828410213994,-0.04653977192632133,-0.28511419182826625,-0.12446909212284796,0.8411689282474208,-0.45020932664130253
1.6465863453815262,1.4001729228677802,1.092585129459944,1.0006046064639702,0.7868877921900456,0.8180649456351401,0.99345353218673,-0.03316779888641569,-0.05364287112674511,-0.14553177416451213,-0.10681949902545762,0.8050491735802252,-0.25759541858084667
1.6666666666666667,1.416515060756414,1.1124342058837624,1.0000996007717973,0.7857770146281708,0.816656930314561,0.9915258686243087,-0.01747000612798938,-0.056742130439407165,0.006899989701815379,-0.08528991482203141,0.7638760735543499,-0.04976277599810963
1.6867469879518073,1.4328584961379212,1.132250072653598,0.9999054678894252,0.7846406191645883,0.8179966447468306,0.9902408256355559,-0.0014147856852388253,-0.056934129605384416,0.10641110233959303,-0.034435436933444044,0.9012336073166263,-0.037757100318303254
1.7068273092369477,1.4492441427205507,1.1520521738644982,1.0000718308649243,0.7834885525321813,0.8207864604797943,0.99017559348831,0.018754507986505322,-0.05855909044661533,0.17194645294685768,0.027454683228753378,1.1122702893288736,-0.12372652604659519
1.7269076305220883,1.4656984443422514,1.1718651661509043,1.0006824261186524,0.7822871953985703,0.8248497944433102,0.9913208534075718,0.04294085838738873,-0.0618431688043274,0.23377554034498355,0.0866208698207678,1.3030318462620543,-0.20369267533673321
1.7469879518072289,1.4822461351609735,1.1917127174074738,1.0018135767865888,0.7810045565393651,0.8301132782702152,0.9936225527281438,0.07074431697772543,-0.06666772855197414,0.29197405423625433,0.14310572346327669,1.4740736743058485,-0.2777984884102383
1.7670682730923695,1.4989104971052636,1.2116174229956842,1.0035337181131576,0.7796109888646625,0.8365050573873958,0.9970274907972433,0.10177604314162506,-0.0729169923674362,0.34661768432291107,0.1969518447769327,1.625951169649945,-0.3461869054886429
1.78714859437751,1.5157133901501454,1.2316008227840818,1.0059036196097026,0.7780791322429567,0.8439547910157829,1.0014833189744998,0.13565830418698974,-0.08047804173302914,0.39778212030721427,0.2482018343823883,1.7592197284840159,-0.4090008667934786
1.8072289156626506,1.5326752825930041,1.2516834181885295,1.0089766072129642,0.776383856325052,0.852393652170351,1.006938540631956,0.17202447534551654,-0.0892408169354952,0.44554305189141924,0.2968982929003015,1.8744347469977407,-0.4663833125462778
1.8273092369477912,1.5498152813294621,1.271884689212455,1.0127987854435536,0.774502203367973,0.8617543276601213,1.0133425111540668,0.21051903977269548,-0.09909811706600984,0.4899761687777814,0.3430838209513197,1.9721516213808001,-0.5184771829685749
1.8473895582329316,1.567151162129265,1.2922231114870997,1.0174092595644306,0.7724133310588772,0.8719710180881586,1.0206454379377001,0.25079758854780904,-0.10994560002017836,0.5311571606685559,0.3868010191561114,2.052925747822872,-0.5654254182818943
1.8674698795180722,1.5846993999121588,1.3127161733117656,1.0228403577393783,0.7700984553389646,0.8829794378515741,1.02879838039214,0.29252682067393504,-0.12168178249803627,0.5691617172659997,0.42809248813531675,2.117312522513635,-0.607370958707772
1.8875502008032128,1.6024751990237731,1.3333803926940662,1.0291178531914797,0.7675407932273912,0.8947168151415248,1.0377532499390807,0.33538454307794363,-0.13420804000404987,0.6040655282723701,0.4670008285096027,2.1658673416427696,-0.6444567444677378
1.9076305220883534,1.6204925235114997,1.3542313343901702,1.0362611863615927,0.7647255056451787,0.9071218919432108,1.0474628100126293,0.3790596706104997,-0.1474286068471162,0.6359442833899203,0.503568640899619,2.1991456013999535,-0.6768257157833252
1.927710843373494,1.6387641274003761,1.3752836269450557,1.0442836870668255,0.7616396402391271,0.9201349240358779,1.0578806760593076,0.4232522260460602,-0.16125057614056384,0.6648736723209081,0.5378385259260234,2.2177026979748673,-0.7046208128760635
1.9477911646586346,1.657301584968965,1.3965509797327536,1.0531927966590158,0.7582720742057253,0.933697680992818,1.0689613155380506,0.46767334008287703,-0.17558389980215014,0.6909293847675917,0.569853084209468,2.2220940275571883,-0.7279849759674829
1.9678714859437751,1.6761153210252342,1.4180461999965979,1.0629902901832018,0.7546134571150622,0.9477534461813674,1.0806600479202042,0.5120452513429947,-0.1903413885540648,0.7141871104322202,0.5996549163706069,2.2128749863365966,-0.747061145279118
1.9879518072289157,1.6952146411824405,1.4397812098894733,1.0736724985361021,0.7506561537347394,0.9622470167629079,1.09293304468953,0.5561013063722522,-0.20543871192292656,0.7347225390170566,0.6272866230301002,2.1906009705027714,-0.7619922610324985
2.0080321285140563,1.714607762135008,1.4617670635140647,1.0852305306245895,0.7463941868537816,0.9771247036928662,1.1057373293422017,0.5995859596402822,-0.2207943982397865,0.7526113602243498,0.6527908048085966,2.155827376245388,-0.7729212634491571
2.0281124497991967,1.7343018419344092,1.484013963963105,1.097650495524167,0.7418231801065479,0.9923343317207136,1.1190307773868051,0.642254773540509,-0.2363298346401251,0.7679292637563626,0.6762100623267568,2.1091095997541314,-0.7799910927506241
2.0481927710843375,1.7543030102650472,1.506531280359621,1.1109137246374452,0.7369403007966437,1.0078252393899674,1.132772116344341,0.683874418390153,-0.25196926706385364,0.780751939315349,0.6975869962052355,2.0510030372186776,-0.7833446891584291
2.068273092369478,1.7746163987201353,1.5293275648971847,1.1249969938526152,0.7317442027208321,1.0235482790381893,1.1469209257482211,0.7242226724302261,-0.26763980025531475,0.7911550766035624,0.716964207064684,1.9820630848287062,-0.7831249928941073
2.0883534136546187,1.7952461710775796,1.5524105698801614,1.1398727457019282,0.7262349689929444,1.0394558167969863,1.1614376371442723,0.7630884218255352,-0.2832713977632807,0.7992143653232633,0.7343842955257629,1.902845138773896,-0.7794749441791865
2.108433734939759,1.8161955535758578,1.5757872647639557,1.155509311520168,0.7204140548677925,1.055501732592011,1.1762835340907336,0.8002716606646809,-0.29879688194095516,0.8050054951767036,0.7498898622091223,1.813904595243926,-0.7725374832352003
2.1285140562248994,1.837466865189901,1.5994638531952616,1.1718711336031296,0.7142842305650804,1.071641420142961,1.1914207521582565,0.8355834909600557,-0.3141519339459719,0.8086041558661412,0.7635235077354197,1.7157968504284757,-0.7624555502836792
2.1485943775100402,1.8590615479069754,1.623445790052311,1.1889189873660924,0.7078495240933143,1.0878317869635783,1.2068122789299074,0.8688461226478479,-0.3292750937403958,0.8100860370938312,0.7753278327253104,1.6090773005172234,-0.749372085546155
2.1686746987951806,1.880980197002562,1.6477377984851194,1.2066102035022988,0.7011151640737152,1.1040312543616513,1.2224219540011645,0.8998928735880378,-0.34410776009072164,0.8095268285620278,0.7853454377994487,1.4943013416998479,-0.7334300292441587
2.1887550200803214,1.903222591316238,1.6723438869557379,1.2248988901414277,0.6940875225641298,1.1201997574390115,1.2382144689799182,0.928568169564399,-0.3585941905678757,0.8070022199729912,0.7936189235784892,1.3720243701660297,-0.7147723215992218
2.208835341365462,1.925787723527558,1.6972673662784987,1.243736155008072,0.686774057882942,1.1362987450915378,1.2541553674864743,0.9547275442845002,-0.3726815015472144,0.8025879010289749,0.8001908906830879,1.2428017821054471,-0.693541902832876
2.2289156626506026,1.9486738304319349,1.7225108666602642,1.2630703275802142,0.6791832574329846,1.1522911800091524,1.27021104515355,0.978237639379703,-0.3863196682085248,0.7963595614322356,0.8051039397339004,1.1071889737077791,-0.6698817131666517
2.248995983935743,1.9718784232165194,1.7480763547406757,1.2828471812477011,0.6713245805254496,1.168141538675824,1.286348749626276,0.9989762044051623,-0.399461524536025,0.7883928908850262,0.8084006713515803,0.9657413411627038,-0.6439346928220817
2.2690763052208833,1.995398317736083,1.7739651506324006,1.3030101554707212,0.6632084012038012,1.1838158113695654,1.3025365805621967,1.0168320968398266,-0.4120627633183628,0.778763579089607,0.8101236861567842,0.8190142806599017,-0.6158437820206966
2.289156626506024,2.0192296647888974,1.8001779449613822,1.3235005779382796,0.6548459510676856,1.1992815021624348,1.3187434896312686,1.0317052820864379,-0.4240819361486177,0.7675473157482329,0.8103155847701675,0.6675631883890518,-0.5857519209840276
2.3092369477911645,2.043367980392617,1.8267148159070854,1.3442578867266743,0.6462492620968435,1.2145076289205368,1.3349392805158624,1.0435068334715325,-0.43548045342429886,0.7548197905631566,0.8090189678123827,0.5119434605398316,-0.5538020499336069
2.3293172690763053,2.067808176060156,1.853575246242749,1.3652198524579724,0.6374311094750211,1.2294647233040183,1.3510946089107603,1.0521589322454397,-0.4462225843473472,0.7406566932366401,0.8062764359040901,0.35271049330192117,-0.5201371090909644
2.3493975903614457,2.092544589075576,1.8807581403756297,1.386322800458484,0.6284049544138812,1.2441248307670743,1.3671809825231602,1.0575948675822826,-0.45627545692413296,0.7251337134709344,0.8021305896659392,0.19041968286500177,-0.48490003867763287
2.3694779116465865,2.1175710127699596,1.9082618413872534,1.4075018329172417,0.6191848869769153,1.258461510557943,1.38317076107267,1.0597590365799778,-0.46560905796545815,0.7083265409682946,0.7966240297185871,0.02562642541874771,-0.4482337789151436
2.389558232931727,2.142880726797296,1.9360841480736615,1.4286910510444728,0.6097855689033542,1.2724498357189082,1.3990371562913133,1.0586069442602346,-0.47419623308655456,0.6903108654309822,0.7897993566826909,-0.1411138828471583,-0.4102812700250266
2.4096385542168672,2.16846652741036,1.9642223319856602,1.4498237772300773,0.6002221764320801,1.2860663930862992,1.4147542319235251,1.0541052035685579,-0.4820126867070853,0.6711623765612478,0.7816991711789019,-0.3092458457430385,-0.37118545222881527
2.429718875502008,2.194320757736594,1.9926731544690692,1.4708327772021037,0.5905103431255372,1.2992892832904905,1.4302969037261546,1.0462315353742446,-0.4890369820511434,0.6509567640613501,0.7723660738278779,-0.4782140670792141,-0.3310892657480399
2.4497991967871484,2.2204353380539894,2.0214328837049687,1.491650482185223,0.5806661026936439,1.3120981207559002,1.4456409394684626,1.0349747684703852,-0.4952505411472532,0.629769717633546,0.761842665250275,-0.647463150666006,-0.29013565080423087
2.4698795180722892,2.246801796066963,2.0504973117499476,1.512209211059207,0.5707058318177035,1.3244740337009941,1.4607629589321256,1.0203348395738647,-0.5006376448283695,0.607676926980087,0.7501715460667464,-0.8164377003137342,-0.24846754761892198
2.4899598393574296,2.273411297182245,2.079861771576354,1.5324413925174034,0.5606461929743163,1.3363996641382814,1.475640433911231,1.002322793325361,-0.5051854327318769,0.5847540818032337,0.7373953168979472,-0.9845823198327199,-0.2062278964136421
2.5100401606425704,2.3002546747847537,2.1095211541125405,1.5522797872252105,0.5505040772592903,1.347859167874316,1.4902516882122796,0.9809607822893455,-0.5088839032995921,0.5610768718052404,0.7235565783645326,-1.151341613033285,-0.16355963740992452
2.5301204819277108,2.3273224605134812,2.1394699252831146,1.5716577099785547,0.5402965472115528,1.3588382145096989,1.504575897654186,0.9562820669540837,-0.5117259137777612,0.536720986688362,0.7086979310871593,-1.3161601837257502,-0.1206057108292995
2.5502008032128516,2.35460491453737,2.1697021430491863,1.5905092518623654,0.5300407796370621,1.3693239874390737,1.5185930900682778,0.9283310157316342,-0.5137071802170616,0.5117621161548591,0.6928619756864842,-1.4784826357204341,-0.0775090568932979
2.570281124497992,2.3820920558311967,2.200211474448616,1.60876950240905,0.5197540084327186,1.3793051838511303,1.5322841452982943,0.8971631049578491,-0.514826277472601,0.486275949906978,0.6760913127831545,-1.6377535728276622,-0.034412615823453285
2.5903614457831323,2.4097736924514526,2.2309912126362623,1.6263747717569736,0.5094534674102761,1.3887720147286051,1.5456307952003905,0.862844918892375,-0.5150846392039176,0.46033817764698526,0.6584285429978332,-1.7934175988577494,0.008540672158704465
2.610441767068273,2.4376394518122235,2.2620342939242333,1.6432628128089297,0.4991563331202535,1.3977162048482774,1.5586156236431323,0.8254541497186512,-0.5144865578749807,0.434024489077129,0.6399162669511709,-1.9449193176210238,0.051207866831643745
2.6305220883534135,2.4656788109610717,2.2933333148221293,1.6593730433906186,0.48887966767584573,1.406130992780973,1.5712220665074998,0.7850795975439109,-0.5130391847541902,0.40741057389966784,0.6205970852638227,-2.091703332927803,0.09344602797383317
2.6506024096385543,2.4938811268549164,2.324880549077297,1.674646768409125,0.47864036157683576,1.4140111308915624,1.5834344116868853,0.74182117039918,-0.5107525299143758,0.3805721218168614,0.6005135985564509,-2.233214248588405,0.13511221536374196
2.6706827309236947,2.5222356666359143,2.356667964715074,1.6890274020113907,0.46845507653350565,1.42135288533896,1.5952377990870952,0.69578988423928,-0.5076394622327992,0.3535848225309639,0.5797084074497034,-2.3688966684131527,0.17606348877983852
2.6907630522088355,2.5507316379073415,2.3886872410790385,1.702460689742692,0.4583401882905475,1.428154036076128,1.6066182206263484,0.647107862942824,-0.5037157093911515,0.32652436574422605,0.5582241125642344,-2.498195196212372,0.2161569080005899
2.710843373493976,2.579358219009473,2.4209297858712566,1.7148949307051153,0.4483117294509758,1.4344138768500718,1.617562520235277,0.5959083383122199,-0.4989998578755548,0.29946644115891097,0.5361033145207053,-2.6205544357963766,0.25524953280446694
2.7309236947791167,2.6081045892954644,2.4533867521925314,1.7262811997160337,0.43838533230003784,1.4401332152018425,1.6280583938569273,0.5423356500736682,-0.4935133529765622,0.2724867384772667,0.5133886139397621,-2.7354189909754925,0.2931984229699365
2.751004016064257,2.636959959407234,2.486049055582652,1.7365735694665814,0.42857617162912587,1.4453143724665356,1.6380943894467563,0.4865452458771642,-0.4872804987891568,0.24566094740155897,0.4901226114420725,-2.842233465560037,0.3298606382754685
2.7710843373493974,2.665913601551341,2.5189073910606394,1.7457293326801313,0.418898907559688,1.4499611837732926,1.647659906972636,0.42870368129649483,-0.4803284582127532,0.219064757634035,0.46634790764827994,-2.940442463360333,0.3650932384995307
2.791164658634538,2.694954879774869,2.551952250164997,1.75370922427077,0.40936762836713997,1.4540789980452993,1.6567451984148507,0.36898861982924314,-0.4726872529511956,0.19277385887695608,0.4421071031790458,-3.0294905881867016,0.39875328342059213
2.8112449799196786,2.724073280241304,2.585173937993958,1.7604776435017722,0.39999579330477597,1.4576746779997891,1.6653413677660995,0.30758883289678396,-0.46438976351275973,0.1668639408325756,0.4174427986550242,-3.108822443849463,0.43069783281712126
2.8313253012048194,2.7532584415064205,2.618562590245733,1.7660028761440802,0.39079617542768064,1.460756600148036,1.6734403710314911,0.24470419984428649,-0.4554717292101513,0.1414106932031518,0.3923975946968712,-3.1778826341589386,0.4607839464675869
2.8514056224899598,2.7825001847941544,2.652108190258759,1.770257316634776,0.3817808044166401,1.4633346547953625,1.6810350162285506,0.18054570794071312,-0.4459717481605069,0.11648980569093537,0.36701409192523604,-3.2361157629254516,0.48886868415045726
2.8714859437751006,2.8117885442724924,2.685800586051949,1.7732176902355592,0.3729609094020533,1.4654202460411359,1.6881189633872151,0.11533545237881904,-0.43593127728539377,0.09217696799818853,0.34133489096078007,-3.282966433959317,0.5148091056442012
2.891566265060241,2.841113797329347,2.7196295073649384,1.7748652751912224,0.3643468617878439,1.4670262917787689,1.6946867245498338,0.049306636275155746,-0.42539463231080993,0.0685478698271651,0.31540259242415747,-3.3178792510708615,0.5384622707272878
2.9116465863453813,2.87046649484844,2.753584582698332,1.7751861248881284,0.3559481180753711,1.468167223695716,1.7007336637711719,-0.01729642932993558,-0.41440898776718343,0.045678200880122866,0.289259796936024,-3.3402988180704005,0.5596852391781848
2.931726907630522,2.8998374914851826,2.787655356353955,1.7741712900126825,0.347773162687341,1.4688589872734816,1.7062559971184035,-0.08421832547231634,-0.4030243769893738,0.023643650859314524,0.2629491051170323,-3.3496697387682617,0.578335070775362
2.9518072289156625,2.9292179759425565,2.8218313054751016,1.7718170407098124,0.33982945079171856,1.4691190417876117,1.7112507926711178,-0.1511925252640569,-0.39129369211667064,0.002519909466993764,0.2365131175878361,-3.345436616974764,0.5942688252972863
2.9718875502008033,2.9585995012469946,2.85610185708678,1.7681250887414417,0.3321233511256385,1.4689663603077001,1.7157159705213196,-0.21794139389343292,-0.3792726840927942,-0.017617333594577317,0.20999443496909576,-3.327044056500224,0.607343562522428
2.9919678714859437,2.987974015024263,2.8904564051359642,1.763102809644967,0.32466008881931685,1.4684214296973828,1.7196503027734225,-0.2841761886249279,-0.36701996266589554,-0.03669238862315005,0.18343565788145932,-3.2939366611549694,0.617416342229254
3.0120481927710845,3.01733388977534,2.9248843275318395,1.7567634648917316,0.31744368821996216,1.4675062506143424,1.7230534135442568,-0.3495970587992292,-0.35459699638855635,-0.05462956591645818,0.15687938694559078,-3.245559034749313,0.6243442241962349
3.032128514056225,3.0466719531522983,2.959375003186052,1.7491264240455053,0.31047691571568725,1.466244337510307,1.7259257789630613,-0.4138930458332337,-0.34206811261778886,-0.07135317577225231,0.1303682227821401,-3.181355781093581,0.6279842682018381
3.0522088353413652,3.075981518234186,2.9939178290529567,1.7402173869209563,0.3037612225594204,1.464660718631051,1.7282687271714958,-0.4767420832200413,-0.32950049751503546,-0.08678752848827775,0.10394476601176161,-3.1007715039980956,0.6281935340245329
3.072289156626506,3.1052564138029055,3.028502237169867,1.7300686057421286,0.2972966876928165,1.4627819360163912,1.7300844383236247,-0.5378109965289608,-0.31696419604617027,-0.10085693436227183,0.07765161725511627,-3.0032508072731723,0.6248290814427877
3.0923694779116464,3.1344910146190985,3.0631177116973003,1.7187191073009194,0.2910819605701688,1.4606360455001886,1.7313759445859294,-0.5967555034055076,-0.30453211198149716,-0.11348570369199118,0.0515313771328465,-2.8882382947291405,0.6177479702350696
3.112449799196787,3.1636802716980235,3.0977538059592282,1.706214915115552,0.28511420398232024,1.4582526167103533,1.7321471301373053,-0.6532202135714014,-0.2922800078957509,-0.1245981467751669,0.02562664626562139,-2.755178570176315,0.6068072601798498
3.1325301204819276,3.1928197425854363,3.132400159483325,1.692609271589054,0.2793890368805747,1.45566273306884,1.7324027311690586,-0.7068386288245705,-0.2802865051680967,-0.13411857390955273,-1.9974725915972158e-05,-2.6035162374250165,0.5918640110555948
3.1526104417670684,3.2219056216334736,3.167046515041215,1.677962860167732,0.2739004772006083,1.4528989917916464,1.732148335884912,-0.7572331430391479,-0.2686330839821308,-0.14197129539288067,-0.02536588522109362,-2.432695900285567,0.5727752826407746
3.1726907630522088,3.2509347702765323,3.2016827356887205,1.6623440274996488,0.2686408846863812,1.4499955038888137,1.7313903845009948,-0.804015042165475,-0.2574040833258797,-0.14808062152290802,-0.05036848459927601,-2.24216216256829,0.5493981347138568
3.1927710843373496,3.2799047473071505,3.236298821806111,1.6458290055930969,0.2636009037140485,1.4469878941644323,1.7301361692458566,-0.8467845042300965,-0.24668670099180073,-0.15237086259736543,-0.0749851722397894,-2.0313596280835,0.5215896270533111
3.21285140562249,3.3088138391518886,3.2708849281383503,1.6285021339750771,0.25876940611587196,1.4439133012166372,1.7283938343604586,-0.8851305993357664,-0.23657099357678169,-0.15476632891401287,-0.09917334752199913,-1.7997329006415246,0.48920681943760513
3.2329317269076303,3.3376610901472095,3.3054313808353473,1.6104560818497722,0.2541334340041313,1.440810377437606,1.7261723760981706,-0.9186312896614448,-0.2271498764821411,-0.15519133077058278,-0.12289040982523325,-1.5467265840526832,0.4521067716452083
3.253012048192771,3.3664463328153604,3.3399286944922006,1.5917920702570239,0.24967814259503535,1.4377192890135633,1.72348164272478,-0.9468534294622971,-0.21851912391362813,-0.15357017846482535,-0.14609375852884732,-1.271785282127297,0.41014654345458834
3.2730923694779115,3.395170218140255,3.3743675891894496,1.572620094230809,0.24538674303263394,1.4346817159247782,1.7203323345184869,-0.9693527650696951,-0.21077736888142254,-0.14982718229447478,-0.16874079301217293,-0.9743535986756839,0.3631831946442152
3.2931726907630523,3.4238342458433504,3.408739007533322,1.5530591449577145,0.24124044521272886,1.431740851945563,1.7167360037698998,-0.9856739348912182,-0.2040261032001348,-0.14388665255728306,-0.190788912654563,-0.6538761375081652,0.3110737849925562
3.3132530120481927,3.4524407946595317,3.4430341316959816,1.5332374319354134,0.2372184006067854,1.4289414046442779,1.7127050547820448,-0.9953504694106515,-0.19836967748880585,-0.13567289955100392,-0.21219551683537752,-0.309797502435071,0.2536753742780795
3.3333333333333335,3.480993152612992,3.477244400455776,1.5132926051311415,0.23329764508584364,1.4263295953833357,1.7082527438703696,-0.9979047911879846,-0.193915301170907,-0.1251102335733627,-0.23291800493393566,0.058437702733289854,0.19084502227925482
3.353413654618474,3.509495515833732,3.511361324548366,1.493371359938689,0.22945319178859372,1.4239388487731595,1.7033025492263236,-0.9931270158543454,-0.190705324612538,-0.11650840656668354,-0.28002490950498976,0.3671081620758079,0.14287401634066707
3.3734939759036147,3.537950965967559,3.5453647693860755,1.4735918844191422,0.22566708094556046,1.4216028699814243,1.6967159754734358,-0.9843459435236466,-0.1879341228750225,-0.11749528347794824,-0.37781410807162846,0.5094892505209764,0.1343647226278588
3.393574297188755,3.566359338337339,3.579217250774874,1.4540159059511304,0.22193473936617925,1.4192231073028045,1.6882224237671035,-0.9728071755679932,-0.18532606078724556,-0.12087168007460895,-0.4707374770914998,0.6429108787932057,0.12655666694174744
3.4136546184738954,3.594719285407468,3.6128815964127052,1.4346967998168083,0.21825304315129057,1.4167526772544499,1.6779183243637454,-0.9586879119375242,-0.1828673166541779,-0.12654690526996668,-0.5588836500159189,0.7675719722245364,0.11942954273187323
3.433734939759036,3.6230285401109064,3.6463225448759524,1.4156844370843924,0.2146191407743255,1.4141465101752564,1.6658983348507572,-0.9421613740757381,-0.1805444749117991,-0.1344302679773579,-0.6423412602962646,0.8836714561469787,0.112963043447773
3.4538152610441766,3.6512839521256057,3.679506710166054,1.3970252641782959,0.21103044495868542,1.4113613502258542,1.6522553401465139,-0.9233968049194905,-0.17834452612709806,-0.14443107711008352,-0.7211989413838588,0.9914082558925696,0.10713686253898594
3.4738955823293174,3.6794815241509493,3.7124025462561265,1.3787623824492616,0.20748462455512176,1.4083557553885961,1.6370804525003486,-0.9025594688990004,-0.17625486699807377,-0.15645864158147327,-0.7955453267300666,1.0909812967933248,0.10193069345505015
3.4939759036144578,3.7076164481841865,3.7449803116375837,1.3609356277444946,0.20397959641911595,1.4050900974675815,1.620463011492578,-0.8798106519378432,-0.17426330035373352,-0.17042227030486345,-0.8654690497862383,1.1825895041812686,0.09732422964550332
3.5140562248995986,3.7356831417968626,3.7772120338667543,1.3435816499777937,0.20051351728825906,1.4015265620886348,1.6024905840344896,-0.8553076614529547,-0.17235803515409417,-0.18623127219356927,-0.9310587440037351,1.2664318033884259,0.0932971645598844
3.534136546184739,3.7636752844112578,3.8090714741115033,1.3267339926996864,0.19708477565963198,1.3976291486993138,1.5832489643683432,-0.8292038263546315,-0.17052768649018174,-0.20379495616091314,-0.9924030428339077,1.3427071197468154,0.08982919164773087
3.5542168674698793,3.791585853576823,3.8405340916978488,1.310423172667561,0.19369198366718474,1.3933636705689179,1.5628221740673733,-0.8016484970465267,-0.16876127558403153,-0.2230226311202066,-1.0495905797280956,1.4116143785884692,0.0869000043585817
3.57429718875502,3.81940716124661,3.8715770086565873,1.294676759415798,0.19033396895911667,1.3886977547884718,1.5412924620357846,-0.7727870454256571,-0.1670482297886882,-0.2438236059847787,-1.1027099881376565,1.4733525052454064,0.08448929614197499
3.5943775100401605,3.8471308900537076,3.902178974269904,1.2795194548259046,0.18700976657525611,1.3836008422707358,1.5187403045087549,-0.7427608648823955,-0.1653783825882054,-0.266107189667949,-1.151849901513945,1.5281204250496505,0.08257676044744863
3.6144578313253013,3.874748129587682,3.932320329618002,1.264973172696647,0.1837186108244403,1.3780441877502072,1.495244405052439,-0.7117073703004759,-0.16374197359764614,-0.28978269108304966,-1.1970989533083087,1.5761170633332244,0.08114209072454118
3.6345381526104417,3.9022494126710017,3.961982972125714,1.2510571183141836,0.18045992716189496,1.3720008597831133,1.4708816945639616,-0.6797599980569902,-0.1621296485630826,-0.3147594191433951,-1.2385457769720993,1.6175413454281533,0.08016498042279084
3.6546184738955825,3.9296247516354774,3.991150320109126,1.2377878680221959,0.17723332406661446,1.3654457407474139,1.445727331271417,-0.6470482060223934,-0.16053245936159652,-0.3409466827623082,-1.2762790059566775,1.6525921966664585,0.0796251229917356
3.674698795180723,3.9568636745987003,4.019807277322197,1.225179448792024,0.17403858491874133,1.3583555268428071,1.4198547007338786,-0.6136974735604965,-0.1589418640012784,-0.3682537908531085,-1.3103872737133848,1.6814685423801667,0.07950221188091415
3.694779116465863,3.983955261740469,4.047940197503375,1.2132434177927975,0.1708756598769462,1.3507087280907215,1.393335415841391,-0.5798293015284706,-0.15734972662122818,-0.39659005232912303,-1.3409592136935773,1.7043693079012994,0.07977594053986443
3.714859437751004,4.010888181579229,4.075536848922219,1.2019889419615697,0.16774465775580766,1.3424856683343187,1.3662393168149702,-0.5455612122768481,-0.15574831749155504,-0.42586477610367135,-1.3680834593486022,1.7214934185618846,0.08042600241812506
3.7349397590361444,4.037650727248508,4.102586378926021,1.191422877573449,0.16464583790319198,1.3336684852384961,1.338634471206606,-0.5110067496495184,-0.15413031301337748,-0.45598727109007564,-1.3918486441298157,1.7330397996939386,0.08143209096523385
3.755020080321285,4.0642308527733455,4.129079278486417,1.1815498498117327,0.16157960207763308,1.3242411302898818,1.310587173899261,-0.47627547898373335,-0.1524887957188231,-0.4868668462016572,-1.412343401488572,1.7392073766294887,0.08277389963072929
3.7751004016064256,4.090616209346735,4.155007346746017,1.1723723323380393,0.15854648632571203,1.31418936879684,1.2821619471068708,-0.4414729871101022,-0.15081725427102882,-0.5184128103517391,-1.4296563648762186,1.7401950747005595,0.0844311218641497
3.7951807228915664,4.116794181606052,4.180363655565018,1.163890726862442,0.1555471528594372,1.3035007798894658,1.2534215403743432,-0.4067008823525943,-0.14910958346414074,-0.5505344724536458,-1.4438761677441088,1.7362018192391726,0.08638345111503298
3.8152610441767068,4.142751923909492,4.205142514067822,1.1561034427135999,0.15258238193362397,1.2921647565195924,1.224426930577562,-0.37205679452853807,-0.14736008422331412,-0.5831411414206951,-1.4550914435435933,1.7274265355773535,0.08861058083291778
3.8353413654618476,4.168476396612505,4.229339433189663,1.1490069764088935,0.1496530637232745,1.280172505460782,1.1952373219233803,-0.3376343749486228,-0.14556346360471376,-0.6161421261662081,-1.4633908257260222,1.7140681490471248,0.09109220446734222
3.855421686746988,4.193954402344228,4.2529510902232195,1.1425959912245547,0.14676019020095743,1.2675170473083317,1.1659101459496255,-0.3035232964168956,-0.14371483479551328,-0.6494467356035134,-1.4688629477427542,1.6963255849805103,0.09380801546784423
3.8755020080321283,4.2191726222839225,4.275975293365236,1.1368633967658013,0.14390484701418804,1.254193216479274,1.136501061525099,-0.2698092532307647,-0.14180971711389587,-0.682964278645926,-1.4715964430451312,1.6743977687095337,0.09673770728396275
3.895582329317269,4.244117652437408,4.298410946263144,1.1318004285369692,0.14108820536280775,1.2401976612123726,1.107063954849574,-0.2365739611809966,-0.1398440360090537,-0.7166040642067744,-1.4716799450845102,1.648483625566217,0.09986097336523538
3.9156626506024095,4.268776039913497,4.320258012561677,1.1273967275116454,0.13831151387636403,1.2255288435681242,1.0776509394537952,-0.20389515755171822,-0.1378141230611885,-0.7502754011993797,-1.4692020873122482,1.6187820808825866,0.10315750716120058
3.9357429718875503,4.293134319200428,4.341517480449499,1.1236404197028012,0.1355760904914903,1.2101870394287633,1.0483123561994856,-0.171846601120415,-0.13571671598151086,-0.7838875985370573,-1.464251503179688,1.5854920599906646,0.10660700212139679
3.9558232931726907,4.317179048442301,4.362191327205811,1.120518195732924,0.13288331432928557,1.1941743384982526,1.0190967732793341,-0.14049807215793347,-0.1335489586122408,-0.8173499651331371,-1.4569168261381877,1.5488124882224739,0.11018915169536203
3.9759036144578315,4.340896845715516,4.382282483746984,1.118015390404151,0.13023461757269442,1.177494644302292,0.9900509862170075,-0.10991537242847782,-0.13130840092660767,-0.8505718099009361,-1.4472866896390926,1.5089422909100394,0.11388364933263473
3.995983935742972,4.364274425305202,4.401794799173168,1.1161160622684017,0.12763147734388675,1.1601536741883147,0.9612200178671453,-0.08016032518961325,-0.1289929990288498,-0.8834624417537826,-1.4354497271337623,1.4660803933853837,0.11767018848275296
4.016064257028113,4.387298633981652,4.420733005314918,1.114803073197511,0.1250754075816377,1.1421589593254866,0.9326471184153582,-0.051290775192264326,-0.12660111515421507,-0.9159311696049857,-1.4214945720735388,1.420425720980534,0.12152846259525503
4.036144578313253,4.409956487276764,4.439102681279807,1.1140581679533603,0.1225679509187071,1.1235198447047055,0.9043737653782291,-0.023360588680714223,-0.12413151766896025,-0.9478873023678815,-1.4055098579097853,1.3721771990275093,0.12543816511967926
4.056224899598393,4.432235205760465,4.456910217999052,1.113862053758013,0.12011067055921973,1.1042474891386047,0.8764396636033152,0.003580346607393814,-0.12158338107035158,-0.9792401489557871,-1.3875842180938438,1.3215337528583344,0.1293789895055638
4.076305220883534,4.454122251317161,4.474162782774135,1.1141944798638468,0.11770514215604494,1.0843548652615527,0.848882745269149,0.029486121441057445,-0.11895628598666438,-1.0098990182820238,-1.3678062860770712,1.2686943078050341,0.13333062920244698
4.096385542168675,4.475605363422156,4.490868283823413,1.115034317123684,0.11535294568817654,1.063856759529647,0.8217391698852303,0.054314805095913465,-0.11625021917718356,-1.0397732192599172,-1.346264695310822,1.213857789199631,0.137272777659867
4.116465863453815,4.496672595418095,4.507035334828743,1.1163596375609273,0.11305565733811238,1.0427697722207232,0.7950433242920378,0.07802844535424103,-0.1134655735322027,-1.0687720608027789,-1.3230480792464352,1.1572231223741496,0.1411851283273623
4.136546184738956,4.517312350791397,4.522673219482103,1.1181477939396909,0.11081484136923454,1.0211123174343482,0.7688278226610192,0.1005930685049582,-0.11060314807302508,-1.096804851823947,-1.298245071335284,1.0989892326606128,0.14504737465447082
4.156626506024097,4.537513419448689,4.537791856032206,1.1203754993349326,0.10863204200318871,0.9989046230918226,0.7431235064945971,0.1219786793436245,-0.10766414795196298,-1.1237809012367244,-1.2719443050286952,1.0393550453910445,0.1488392100907312
4.176706827309237,4.557265013993241,4.55240176183113,1.1230189067025902,0.10650877529726449,0.97616873093618,0.7179594446261657,0.14215926117243893,-0.10465018445233797,-1.149609517954456,-1.2442344137780434,0.9785194858974664,0.1525403280856812
4.196787148594377,4.576556806001408,4.566514017880928,1.1260536884497108,0.10444652102177483,0.95292849653219,0.693362933220095,0.1611127758002423,-0.10156327498848103,-1.174200010890445,-1.215204031034661,0.916681479511906,0.15613042208885963
4.216867469879518,4.595378962299046,4.580140233380245,1.1294551160045838,0.10244671453743597,0.9292095892663532,0.6693594957717237,0.17882116354251498,-0.09840584310573197,-1.1974616889580254,-1.1849417902499155,0.8540399515663823,0.15958918554980425
4.236947791164659,4.613722181237965,4.593292510270949,1.1331981393868757,0.10051073867274726,0.9050394923469032,0.6459728831073654,0.19527034322137715,-0.09518071848044032,-1.219303861070511,-1.1535363248751516,0.7907938273929229,0.1628963119180536
4.257028112449799,4.631577728972358,4.60598340778474,1.1372574667777617,0.09863991560137099,0.8804475028038126,0.6232250733843099,0.21045021216559157,-0.09189113691996435,-1.2396358361412236,-1.1210762683617155,0.7271420323235493,0.1660314946431459
4.27710843373494,4.6489374757352335,4.618225906989778,1.1416076440900584,0.09683549871951219,0.8554647314887793,0.6011362720908138,0.22435464621055945,-0.08854074036267202,-1.2583669230834928,-1.0876502541609678,0.6632834916902863,0.16897442717461938
4.2971887550200805,4.665793932114847,4.630033375337291,1.1462231345383567,0.09509866452329846,0.8301241030752409,0.5797249120461112,0.23698149969832316,-0.08513357687794029,-1.2754064308106372,-1.0533469157242585,0.5994171308251548,0.17170480296201213
4.317269076305221,4.682140285331148,4.641419531208208,1.151078398209155,0.09343050448615968,0.8044603560583683,0.5590076534004087,0.24833260547756608,-0.08167410066615532,-1.2906636682359753,-1.0182548865029357,0.5357418750601814,0.17420231545486264
4.337349397590361,4.6979704355122,4.652398408459768,1.156147971630992,0.09183201693620804,0.7785100427550598,0.5389993836348825,0.2584137749036113,-0.07816717205871265,-1.304047944272833,-0.9824627999483537,0.4724566497273899,0.17644665810270913
4.357429718875502,4.713279031970627,4.6629843209721455,1.1614065473445785,0.0903040989336176,0.752311529303956,0.5197132175616881,0.26723479783842286,-0.07461805751801688,-1.3154685678345377,-0.9460592895118687,0.40976038015880034,0.1784175243550897
4.377510040160643,4.728061509480037,4.673191827195065,1.1668290534729318,0.08884753814800435,0.7259049956654247,0.5011604973239452,0.2748094426506047,-0.07103242963748203,-1.3248348478344019,-0.9091329886448261,0.34785199168643843,0.18009460766154273
4.397590361445783,4.742314124551468,4.683035694694426,1.1723907332915071,0.08746300473580583,0.6993324356215709,0.48335079239575673,0.2811554562154017,-0.06741636714153125,-1.3320560931857512,-0.8717725307985766,0.28693040964232996,0.18145760147160644
4.417670682730924,4.756033991709818,4.692530864698919,1.1780672247983317,0.08615104321766104,0.6726376567762316,0.46629189958219097,0.28629456391469943,-0.06377635488559691,-1.3370416128019045,-0.8340665494244748,0.22719455935849586,0.18248619923481918
4.437751004016064,4.769219119770273,4.701692416646644,1.183834640284136,0.08491206435579027,0.6458662805549746,0.44998984301928857,0.29025246963702345,-0.06011928385612071,-1.3397007155961909,-0.796103677973873,0.1688433661669595,0.18316009440071898
4.457831325301205,4.7818684481147535,4.710535532731734,1.1896696459024878,0.08374633703137488,0.6190657422051089,0.43444887417407063,0.29305885577754,-0.0564524511705535,-1.3399427104819308,-0.7579725498981249,0.11207575539974624,0.18345898041884423
4.477911646586345,4.793981882968342,4.71907546245097,1.1955495412399246,0.08265398012193706,0.592285290795667,0.4196714718445218,0.29474738323805516,-0.052783560077355324,-1.3376769063724376,-0.7197617986485758,0.05709065238887834,0.1833625507387333
4.497991967871486,4.805560333675716,4.727327487150405,1.2014523388860867,0.08163495437871979,0.5655759892174244,0.4056583421596107,0.29535569142701723,-0.04912071995599565,-1.332812612181046,-0.6815600576765846,0.00408698246637984,0.18285049880992427
4.518072289156627,4.816605748977591,4.735306884571979,1.2073568440038493,0.0806890543040665,0.5389907141828845,0.3924084185792678,0.29492539825951325,-0.04547244631695295,-1.3252591368210673,-0.6434559604334957,-0.046736329035725444,0.1819025180819554
4.538152610441767,4.8271211532871465,4.743028893400139,1.213242733899456,0.07981590002880101,0.5125841562262838,0.37991886189440294,0.2935021001572711,-0.041847660801715036,-1.314925789205839,-0.6055381403706726,-0.09518035678541603,0.18049830200436492
4.5582329317269075,4.837110682966463,4.7505086778084635,1.2190906375926516,0.07901492918960726,0.48641281970359795,0.3681850602268977,0.2911353720486596,-0.03825569118277902,-1.3017218782486606,-0.5678952309394516,-0.14104617545066345,0.1786175440266913
4.578313253012048,4.846579622602962,4.7577612920062755,1.224882215386814,0.07828538880640917,0.4605350227925298,0.35720062902960503,0.2878787673686878,-0.034706271363651175,-1.2855567128628747,-0.5306158655911968,-0.18413485969944998,0.17623993759847248
4.598393574297189,4.855534441285833,4.764801644785267,1.2306002384390884,0.07762632715975042,0.43501089749251864,0.34695741108635314,0.28378981805900505,-0.031209541378847017,-1.2663396019617918,-0.4937886777772535,-0.2242474841997469,0.17334517616924708
4.618473895582329,4.863982828882473,4.771644464066115,1.2362286683305186,0.07703658566817431,0.40990238962473846,0.33744547651194345,0.27893003456790133,-0.027776047393891237,-1.2439798544587344,-0.4575023009489738,-0.2611851236195332,0.16991295318855307
4.63855421686747,4.871933732314918,4.778304261445102,1.2417527366361816,0.07651479076560358,0.38527325883209507,0.328653122752149,0.27336490585030715,-0.024416741705317893,-1.2183867792670247,-0.4218453685577086,-0.294748852626785,0.16592296210592875
4.658634538152611,4.879397391836283,4.784795296740736,1.2471590244953186,0.07605934577872012,0.361189078579228,0.32056687458371336,0.26716389936779383,-0.021142982740670183,-1.1894696853000042,-0.3869065140548247,-0.3247397458894812,0.16135489637091233
4.678714859437751,4.88638537730719,4.79113154254037,1.252435542181469,0.07566842280434494,0.3377172361525096,0.3131714841143589,0.2604004610885724,-0.017966535058500557,-1.15713788147097,-0.3527743708916553,-0.350958878075594,0.1561884494330421
4.698795180722891,4.892910624472208,4.797326648746822,1.2575718086726029,0.07533995458681786,0.3149269326600477,0.30644993078277416,0.25315201548749444,-0.01489956934837075,-1.1213006766932452,-0.31953757251955306,-0.3732073238531002,0.15040331474185664
4.718875502008032,4.898987471236281,4.80339390712499,1.2625589312212535,0.07507162639537739,0.292889183031682,0.3003834213586263,0.24549996554605302,-0.011954662430851623,-1.0818673798801681,-0.2872847523898816,-0.3912861578899791,0.1439791857468936
4.738955823293173,4.904631693941174,4.80934621584848,1.2673896849246509,0.07486086790154053,0.2716768160189895,0.2949513899425549,0.23752969275238023,-0.00914479725752336,-1.0387472999450393,-0.2561045439539722,-0.4049964548542033,0.1368957558976918
4.759036144578313,4.909860543641895,4.815196044046217,1.2720585922948529,0.07470484505648259,0.25136447419527297,0.29013149796616755,0.22933055710124917,-0.006483362910975413,-0.9918497458012059,-0.22608558066320583,-0.4141392894137539,0.12913271864378914
4.779116465863454,4.91469278238314,4.820955396349068,1.2765620028288809,0.074600451968417,0.2320286139555785,0.28589963419205056,0.2209958970940753,-0.00398415460480632,-0.9410840263619704,-0.19731649596890577,-0.4185157362366021,0.12066976743472399
4.7991967871485945,4.919148719475718,4.826635777436463,1.2808981725788497,0.0745443027799751,0.21374750551667532,0.28222991471375813,0.21262302973891023,-0.001661373683624054,-0.8863594505406738,-0.1698859233224539,-0.41792686999073103,0.11148659572003453
4.8192771084337345,4.923250247772996,4.832248156583013,1.2850673437221025,0.07453272354558602,0.1966012329170752,0.27909468295582407,0.2043132505504508,0.0004703723769543672,-0.8275853272506204,-0.14388249617517346,-0.4121737653441109,0.10156289694925902
4.839357429718875,4.927020879947327,4.837802932205129,1.2890718241313421,0.07456174410885641,0.180671694017021,0.27646450967374836,0.19617183355003176,0.002396069970302603,-0.764670965405136,-0.11939484797842859,-0.40105749696472115,0.09087836457193588
4.859437751004016,4.930485784766483,4.843309896407639,1.2929160669447646,0.07462708997995034,0.1660426004984883,0.27430819295400877,0.1883080312656279,0.004100299358785017,-0.6975256739175393,-0.09651161218356563,-0.38437913952053515,0.07941269203760326
4.879518072289157,4.933671823370097,4.848778199530415,1.296606750136192,0.07472417421296908,0.15279947786517845,0.27259275821405016,0.18083507473185556,0.005567234673756846,-0.6260587617011737,-0.07532142224194871,-0.36193976767953284,0.06714557279579936
4.899598393574297,4.93660758554609,4.854216314694981,1.3001528560852054,0.07484808928333085,0.14102966544254292,0.2712834582022987,0.17387017348997236,0.006780643915564037,-0.5501795376693366,-0.05591291160491707,-0.33354045610968885,0.054056700296062465
4.919678714859438,4.939323426007112,4.859632002351149,1.303565751147277,0.07499359896515077,0.13082231637775532,0.2703437729981495,0.1675345155878747,0.0077238889535433675,-0.46979731073535547,-0.038374713723822396,-0.29898227947898004,0.04012576798793094
4.9397590361445785,4.941851500666973,4.86503227482362,1.306859265223903,0.07515513020862058,0.1222683976397203,0.2697354100119629,0.1619532675800992,0.00837992552602218,-0.3848213898125614,-0.02279546205003058,-0.25806631245538103,0.02533246932094274
4.959839357429719,4.944225802917079,4.8704233608586165,1.310049771332738,0.07532676501738844,0.11546069001909176,0.2694183039850926,0.15725557452782618,0.008731303240318945,-0.2951610838142642,-0.009263790034879094,-0.21059362970687356,0.00965649774463656
4.979919678714859,4.9464821999028645,4.875810670170495,1.3131562651777258,0.07550223232593883,0.1104937881282313,0.26935061698983587,0.1535745599988712,0.008760165572742465,-0.20072570165381265,0.0021316688702732733,-0.1563653059014296,-0.006922453291449859
5.0,4.94865846880023,4.881198757988369,1.3162004447192321,0.07567489987697233,0.1074641004012632,0.2694887384294923,0.15104732606769528,0.008448249868592664,-0.1014245522444952,0.011302281214071286,-0.09518241570702735,-0.024424690337778
