time,pos_x,pos_y,pos_z,yaw,vel_x,vel_y,vel_z,vel_yaw,acc_x,acc_y,acc_z,acc_yaw
0.0,-9.994331439899451e-17,-3.7495857684088894e-17,4.3977426044344187e-17,-3.703688062324655e-17,0.0,0.0,0.0,0.0,0.0,0.0,0.0,0.0
0.01,-2.160161421019355e-07,-7.558558178615281e-08,7.639726681458816e-07,-1.3445442858326311e-07,-6.47838919152345e-05,-2.2671549935145958e-05,0.00022870234995897164,-4.0292849244953243e-05,-0.012948386332319357,-0.00453265449305147,0.04554485457212182,-0.008041184895166484
0.02,-1.7264483706485098e-06,-6.04352423589725e-07,6.072691214715801e-06,-1.0721597923883476e-06,-0.0002587987079714843,-9.061941416095116e-05,0.000907001259944787,-0.00016047667620022795,-0.025846067062156277,-0.009055206276075128,0.08992095969494368,-0.01597826327939815
0.03,-5.821058870420633e-06,-2.038552874647597e-06,2.0363848536514505e-05,-3.6068273167420075e-06,-0.0005815338591623287,-0.00020374086811536334,0.00202325866615161,-0.00035951244787642023,-0.038692335593183774,-0.013567315856713247,0.13313820150589492,-0.02381164157668101
0.04,-1.3784468606218328e-05,-4.829395063920599e-06,4.795925119911568e-05,-8.521798218239077e-06,-0.0010324716905180382,-0.00036192979231273857,0.003565935366147881,-0.0006363651955239721,-0.05148648532907485,-0.0180686437426081,0.17520646614240487,-0.03154172621100106
0.05,-2.6896086663327988e-05,-9.427008950895238e-06,9.306580805064891e-05,-1.6590084347178116e-05,-0.0016110874811056139,-0.0005650766723438554,0.005523591018876333,-0.0009900040146331853,-0.06422780967350247,-0.022558850441401955,0.21613563974190278,-0.0391689236063443
0.06,-4.643003958788962e-05,-1.6280412376347913e-05,0.00015977651883554257,-2.8574408829959986e-05,-0.002316849444028786,-0.000813068598875915,0.007884884144653994,-0.0014194020649342218,-0.07691560203013967,-0.027037596460737088,0.2559356084418181,-0.04669364018669676
0.07,-7.365510072726427e-05,-2.5837477113109173e-05,0.00025207146280826684,-4.522724671148651e-05,-0.003149218726428016,-0.0011057892676525423,0.010638572125172188,-0.0019235365703971045,-0.08954915580265946,-0.03150454230825578,0.2946162583795802,-0.05411628237604442
0.08,-0.00010983461957040112,-3.854489491682786e-05,0.0003738187873470762,-6.729086559755895e-05,-0.004107649409480494,-0.0014431189794937834,0.013773511203496517,-0.002501388819231714,-0.10212776439473481,-0.035959348491600276,0.33218747569261825,-0.061437256598373284
0.09,-0.00015622645108820504,-5.484814357673549e-05,0.0005287756965677532,-9.549736629727678e-05,-0.005191588508400139,-0.0018249346402961079,0.017278656484066898,-0.0031519441638877942,-0.11465072121003866,-0.040401675518412866,0.36865914651836157,-0.06865696927766937
0.1,-0.00021408288507390359,-7.519145296641032e-05,0.000720589439937351,-0.00013056872346543615,-0.006400475972437604,-0.002251109761032408,0.021143061932697525,-0.0038741920210549445,-0.12711731965224413,-0.044831183896335836,0.40404115699423965,-0.07577582683791867
0.11,-0.0002846505754834148,-0.00010001777109454171,0.0009527983008879359,-0.0001732168262449286,-0.007733744684880271,-0.0027215144577520003,0.025355880376576906,-0.004667125871662631,-0.13952685312502422,-0.04924753413301145,0.4383433932576819,-0.08279423570310722
0.12,-0.0003691704697757137,-0.00012976873015569412,0.00122883258543033,-0.0002241435189091394,-0.009190820463052246,-0.0032360154515806193,0.02990636350426781,-0.005529743260880173,-0.15187861503205183,-0.05365038673608196,0.47157574144611736,-0.089712602297221
0.13,-0.00046887773825320036,-0.0001648846125810717,0.0015520156107678563,-0.0002840406415043465,-0.010771122058314375,-0.0037944760687204293,0.03478386186570733,-0.0064610457981167544,-0.164171898777,-0.05803940221318966,0.5037480876969755,-0.09653133304424599
0.14,-0.0005850017034020673,-0.00020580431708928235,0.0019255646939100796,-0.0003535900704921192,-0.012474061156064224,-0.004396756240450011,0.03997782487220683,-0.0074600391570214175,-0.17640599776354177,-0.0624142410719768,0.5348703181476859,-0.10325083436816823
0.15,-0.0007187657692326656,-0.0002529653247371017,0.0023525921402865486,-0.0004334637593917161,-0.014299042375736102,-0.0050427125031243724,0.04547780079645199,-0.008525733075483065,-0.1885802053953501,-0.0667745638200857,0.5649523189356777,-0.10987151269297375
0.16,-0.0008713873506198735,-0.0003068036649702377,0.002836106232360542,-0.0005243237794224843,-0.016245463270801026,-0.005732197998174939,0.05127343677250275,-0.009657141355630457,-0.200693815076098,-0.07112003096515858,0.59400397619838,-0.1163937744426485
0.17,-0.0010440778026434626,-0.0003677538816740945,0.0033790122182428065,-0.0006268223601462577,-0.01831271432876677,-0.006465062472109566,0.0573544787957934,-0.01085328186383222,-0.21274612020945846,-0.07545030301483774,0.6220351760732223,-0.12281802604117854
0.18,-0.0012380423499284672,-0.0004362489992245372,0.003984113300305308,-0.0007416019301097562,-0.02050017897117782,-0.0072411522765125245,0.06371077172313244,-0.012113176530696835,-0.22473641419910448,-0.07976504047676544,0.649055804697634,-0.1291446739125498
0.19,-0.0014544800159855484,-0.0005127204885386555,0.0046541116237949634,-0.000869295157486983,-0.022807233553615393,-0.008060310368044511,0.07033225927270274,-0.01343585135107264,-0.23666399044870912,-0.08406390385858395,0.6750757482090447,-0.13537412448074837
0.2,-0.001694583552551364,-0.0005975982331255284,0.0053916092654473936,-0.001010524990721625,-0.02523324736569744,-0.008922376308442647,0.07720898402406143,-0.014820336384047846,-0.2485281423619453,-0.08834655366793556,0.7001048927448832,-0.14150678416976017
0.21,-0.0019595393689289353,-0.000691310495136988,0.006199109222100664,-0.0011659046991694495,-0.02777758263107865,-0.009827186264520477,0.08433108741813995,-0.016265665752950513,-0.2603281633424861,-0.09261265041246253,0.7241531244425792,-0.1475430594035713
0.22,-0.002250527461328013,-0.0007942838814183843,0.007079016399309017,-0.0013360379137407048,-0.03043959450745043,-0.010774573008167958,0.09168880975724399,-0.01777087764534856,-0.2720633467940043,-0.09686185459980712,0.7472303294395616,-0.15348335660616763
0.23,-0.002568721342205447,-0.0009069433095593481,0.008033638599956634,-0.0015215186675425164,-0.03321863108654091,-0.011764365916351487,0.09927249020505356,-0.019335014313049768,-0.2837329861201732,-0.10109382673761161,0.7693463938732603,-0.1593280822015353
0.24,-0.002915287969605551,-0.0010297119739445574,0.009065187512871362,-0.0017229314365212875,-0.036114033394114974,-0.012796390971113868,0.10707256678662301,-0.02095712207210179,-0.2953363747246657,-0.1053082273335183,0.7905112038811042,-0.16507764261366029
0.25,-0.0032913876765004713,-0.0011630113118044996,0.01017577970143846,-0.0019408511801050979,-0.039125135389974225,-0.013870470759574337,0.11507957638838096,-0.022636251302792128,-0.30687280601115474,-0.10950471689516944,0.8107346456005231,-0.17073244426652856
0.26,-0.0036981741001305543,-0.0013072609692662371,0.011367437592214352,-0.0021758433818461,-0.042251263967956976,-0.014986424473928547,0.12328415475813018,-0.024371456449648134,-0.3183415733833133,-0.1136829559302073,0.830026605168946,-0.17629289358412611
0.27,-0.004136794111344713,-0.0014628787674041705,0.012642090463540359,-0.002428464090062921,-0.0454917389559383,-0.01614406791144858,0.13167703650504797,-0.026161796021437034,-0.3297419702448145,-0.11784260494627416,0.8483969687238023,-0.18175939699043897
0.28,-0.004608387743940796,-0.0016302806682908036,0.01400157543415645,-0.002699259958483059,-0.048845873115829996,-0.01734321347448294,0.1402490550996858,-0.028006332591165917,-0.3410732899993312,-0.12198332445101225,0.8658556224025209,-0.18713236090945312
0.29,-0.005114088124005951,-0.0018098807410475073,0.015447638451814969,-0.002988768286885281,-0.05231297214358056,-0.018583670170456538,0.1489911428739694,-0.029904132796081728,-0.3523348260505365,-0.1261047749520639,0.8824124523425321,-0.19241219176515464
0.3,-0.005655021399256995,-0.0020020911278952835,0.01698193528189439,-0.0032975170617420245,-0.055892334669175245,-0.019865243611870732,0.15789433102119882,-0.03185426733767126,-0.3635258718021034,-0.1302066169570714,0.8980773446812642,-0.19759929598152945
0.31,-0.006232306668380784,-0.0022073220102055307,0.018606032496013086,-0.003626024996861792,-0.059583252256636084,-0.021187736016303298,0.16694974959604852,-0.03385581098166118,-0.3746457206577047,-0.1342885109736769,0.9128601855561471,-0.20269407998256359
0.32,-0.0068470559103745755,-0.002425981574550806,0.020321408460643006,-0.003974801574031557,-0.06338500940402172,-0.022550946206408413,0.17614862751456709,-0.03590784255801803,-0.3856936660210138,-0.13835011750952278,0.9267708611046103,-0.2076969501922431
0.33,-0.007500373913886396,-0.0026584759787555905,0.022129454325723476,-0.00434434708365915,-0.06729688354342762,-0.0239546696099167,0.18548229255417742,-0.03800944496094815,-0.39666900129570326,-0.14239109707225134,0.9398192574640826,-0.21260831303455385
0.34,-0.008193358206555413,-0.002905209317947055,0.024031475013274926,-0.00473515266541567,-0.07131814504098598,-0.025398698259635193,0.19494217135367686,-0.040159705148897835,-0.4075710198854464,-0.14641111016950475,0.9520152607719939,-0.21742857493348205
0.35000000000000003,-0.008927098984352295,-0.003166583590605821,0.026028690206012624,-0.005147700348877878,-0.07544805719686566,-0.02688282079344735,0.20451978941323692,-0.04235771414455314,-0.4183990151939161,-0.15040981730892533,0.963368757165773,-0.2221581423130135
0.36,-0.00970267904091959,-0.003442998664616728,0.028122235335960425,-0.00558246309417059,-0.07968587624527232,-0.02840682245431307,0.2142067710944034,-0.04460256703484007,-0.42915228062478533,-0.15438687899815534,0.9738896327828496,-0.22679742159713437
0.37,-0.010521173696912082,-0.0037348522433195957,0.030313162573064517,-0.006039904832609089,-0.08403085135444828,-0.029970485090268634,0.22399483962009634,-0.04689336297092441,-0.4398301095817272,-0.15834195574483712,0.9835877737606528,-0.23134681920983055
0.38,-0.011383650729337159,-0.0040425398315599905,0.032602441813807156,-0.006520480507341508,-0.08848222462667267,-0.03157358715442679,0.23387581707461028,-0.04922920516821189,-0.4504317954684145,-0.16227470805661282,0.9924730662366121,-0.2358067415750881
0.39,-0.012291170300895191,-0.004366454701739985,0.03499096166982043,-0.00702463611399124,-0.0930392310982613,-0.03321590370497668,0.2438416244036139,-0.05160920090634801,-0.4609566316885204,-0.16618479644112483,1.0005553963481568,-0.24017759511689307
0.4,-0.01324478488931988,-0.004706987859868929,0.037479530456499946,-0.007552808741299333,-0.09770109873956673,-0.034897206405183887,0.2538842814141502,-0.05403246152921821,-0.47140391164571804,-0.17007188140601537,1.0078446502327165,-0.2444597862592314
0.41000000000000003,-0.014245539216718653,-0.005064528011614207,0.04006887718161867,-0.008105426611766886,-0.10246704845497821,-0.0366172635233904,0.26399590677463636,-0.0564981024449477,-0.48177292874368005,-0.17393562345892669,1.0143507140277197,-0.248653721426089
0.42,-0.015294470178912997,-0.005439461528352011,0.04275965253394056,-0.008682909122297454,-0.10733629408292181,-0.03837583993301463,0.27416871801486414,-0.05900524312590166,-0.4920629763860796,-0.17777568310750108,1.0200834738705962,-0.252759807041452
0.43,-0.016392606774778846,-0.00583217241321809,0.04555242987183438,-0.009285666884839438,-0.1123080423958602,-0.040172697112551434,0.2843950315259993,-0.061553007108685054,-0.5022733479765898,-0.18159172085938086,1.025052815898776,-0.2567784495293065
0.44,-0.017540970035586956,-0.006243042267158533,0.048447706211887445,-0.009914101767028487,-0.11738149310029286,-0.04200759314557208,0.29466726256058207,-0.06414052199414272,-0.5124033369188836,-0.1853833972222082,1.0292686262496875,-0.26071005531363833
0.45,-0.018740572954343247,-0.0066724502549805175,0.0514459032175193,-0.010568606932829905,-0.12255583883675608,-0.04388028272072424,0.304977925232527,-0.06676691944735938,-0.522452236616634,-0.18915037270362547,1.0327407910607607,-0.26455503081843357
0.46,-0.0199924204151292,-0.007120773071403085,0.05454736818759557,-0.01124956688318104,-0.12783026517982268,-0.04579051713173203,0.3153196325171227,-0.06943133519765957,-0.5324193404735139,-0.19289230781127492,1.0354791964694243,-0.2683137824676782
0.47000000000000003,-0.021297509122442188,-0.007588384907107894,0.057752375045041555,-0.011957357496633677,-0.13320395063810236,-0.04773804427739599,0.3256850962510322,-0.07213290903860772,-0.5423039418931964,-0.1966088630527988,1.037493728613108,-0.27198671668535823
0.48,-0.02265682753053589,-0.008075657414789997,0.06106112532545613,-0.012692346069996455,-0.13867606665424154,-0.04972260866159307,0.33606712713229303,-0.07487078482800813,-0.5521053342793544,-0.20029969893583938,1.0387942736292413,-0.2755742398954597
0.49,-0.024071355772760605,-0.008582959675208592,0.06447374916572536,-0.013454891358977247,-0.1442457776049233,-0.051743951393276644,0.34645863472031674,-0.07764411048790495,-0.561822811035661,-0.2039644759680389,1.039390717655253,-0.27907675852196856
0.5,-0.025542065590903662,-0.009110658163237795,0.06799030629263633,-0.01424534361882557,-0.14991224080086746,-0.05380181018647651,0.3568526274358891,-0.08045203800458214,-0.5714556655657892,-0.20760285465703973,1.0392929468285734,-0.2824946789888709
0.51,-0.02706992026452979,-0.00965911671391741,0.07161078701149091,-0.015064044644974989,-0.15567460648683074,-0.05589591936029892,0.36724221256117057,-0.08329372342856363,-0.5810031912734119,-0.21121449551048413,1.0385108472866307,-0.2858284077201526
0.52,-0.02865587454032143,-0.010228696488503674,0.07533511319471933,-0.01591132781368549,-0.1615320178416063,-0.0580260098389265,0.3776205962396957,-0.08616832687461311,-0.5904646815622023,-0.21479905903601426,1.0370543051668548,-0.28907835113979974
0.53,-0.030300874561419163,-0.010819755940520034,0.07916313927049407,-0.016787518122685904,-0.16748361097802422,-0.0601918091516183,0.387981083476373,-0.08907501252173414,-0.5998394298358332,-0.21835620574127249,1.0349332066066748,-0.2922449156717983
0.54,-0.03200585779676206,-0.011432650781807916,0.08309465321134363,-0.017692932231816304,-0.17352851494295135,-0.06239304143270985,0.3983170781374859,-0.09201294861317019,-0.6091267294979775,-0.22188559613390102,1.0321574377435203,-0.2953285077401343
0.55,-0.03377175297042801,-0.012067733948577485,0.08712937752276617,-0.01862787850367039,-0.17966585171729108,-0.06462942742161303,0.4086220829506916,-0.09498130745640457,-0.6183258739523083,-0.22538689072154217,1.0287368847148204,-0.2983295337687937
0.56,-0.03559947999097416,-0.01272535556745839,0.09126697023184328,-0.019592657044237887,-0.18589473621598374,-0.0669006844628162,0.418889699505022,-0.09797926542316043,-0.6274361566024991,-0.22885975001183823,1.0246814336580048,-0.3012484001817627
0.5700000000000001,-0.03748994988077723,-0.013405862921550573,0.0955070258758538,-0.02058755974354697,-0.1922142762880062,-0.06920652650588412,0.42911362825088273,-0.10100600294940082,-0.636456870852222,-0.23230383451243142,1.0200009707105024,-0.304085513403027
0.58,-0.03944406470537388,-0.014109600416474976,0.09984907649088741,-0.02161287031630662,-0.1986235727163722,-0.07154666410545796,0.4392876685000545,-0.10406070453532859,-0.6453873101051508,-0.23571880473096413,1.014705382009743,-0.3068412798565729
0.59,-0.041462717502801096,-0.014836909546424358,0.1042925926004585,-0.022668864342549055,-0.20512171921813216,-0.07392080442125536,0.44940571842569166,-0.1071425587453865,-0.654226767764958,-0.23910432117507846,1.0088045536931554,-0.3095161059663862
0.6,-0.04354679221293657,-0.015588128860214025,0.10883698420411995,-0.023755809308272143,-0.2117078024443732,-0.07632865121807028,0.45946177506232294,-0.11025075820825715,-0.6629745372353169,-0.24246004435241675,1.0023083718981693,-0.3121103981564529
0.61,-0.04569716360683902,-0.016363593927332606,0.11348160176607669,-0.024873964646081735,-0.21838090198021926,-0.07876990486577325,0.46944993430585175,-0.11338449961686303,-0.6716299119199002,-0.24578563477062132,0.9952267227622134,-0.31462456285075907
0.62,-0.04791469721608861,-0.01716363730399282,0.11822573720379963,-0.026023581775834144,-0.2251400903448309,-0.08124426233931109,0.4793643909135554,-0.11654298372836644,-0.6801921852223811,-0.24908075293733442,0.9875694924227181,-0.3170590064732908
0.63,-0.05020024926212727,-0.017988588499182227,0.12306862487663923,-0.027204904145278472,-0.23198443299140536,-0.08375141721870707,0.48919943850408565,-0.11972541536416952,-0.6886606505464323,-0.25234505936019824,0.979346567017112,-0.31941413544803393
0.64,-0.05255466658559914,-0.01883877394071403,0.12800944257443955,-0.028418167270699082,-0.23891298830717697,-0.086291059689061,0.4989494695574687,-0.12293100340991442,-0.6970346012957275,-0.2555782145468552,0.9705678326828246,-0.3216903561989746
0.65,-0.05497878657569083,-0.01971451694127778,0.13304731250615157,-0.02966359877755793,-0.24592480761341637,-0.08886287654054897,0.5086089754151047,-0.126158960815483,-0.7053133308739392,-0.25877987900494753,0.9612431755572859,-0.32388807515009893
0.66,-0.057473437099471836,-0.02061613766449018,0.13818130228844716,-0.030941418441136986,-0.25301893516543106,-0.09146655116842355,0.5181725462797683,-0.12940850459499695,-0.7134961326847403,-0.2619497132421174,0.951382481777924,-0.32600769872539254
0.67,-0.06003943643123496,-0.021543953090945853,0.14341042593433295,-0.032251838227180654,-0.26019440815256534,-0.09410176357301372,0.5276348712156086,-0.13267885582681802,-0.7215823001318039,-0.26508737776600716,0.9409956374821687,-0.3280496333488417
0.68,-0.06267759318183658,-0.022498276984268074,0.14873364484176374,-0.033595062332538124,-0.2674502566982003,-0.0967681903597249,0.5369907381481485,-0.13596923965354762,-0.7295711266188032,-0.26819253308425905,0.9300925288074495,-0.33001428544443234
0.6900000000000001,-0.06538870622803714,-0.023479419857159574,0.15414986878225664,-0.03497128722580585,-0.2747855038597534,-0.09946550473903892,0.5462350338642856,-0.13927888528202706,-0.737461905549411,-0.27126483970451537,0.9186830418911959,-0.33190206143615053
0.7000000000000001,-0.06817356464184134,-0.024487688937453275,0.15965795688950446,-0.03638070168796986,-0.28219916562867947,-0.10219337652651406,0.5553627440122921,-0.1426070259833377,-0.7452539303273004,-0.27430395813441844,0.9067770628708369,-0.3337133677479822
0.71,-0.0710329476198387,-0.025523388134163057,0.1652567186479896,-0.0378234868530482,-0.2896902509304693,-0.10495147214278494,0.5643689531018136,-0.1459528990928004,-0.7529464943561445,-0.2773095488816104,0.8943844778838022,-0.33544861080391347
0.72,-0.07396762441254381,-0.026586818003534546,0.1709449148815979,-0.039299816248733334,-0.2972577616246511,-0.10773945461356271,0.5732488445038707,-0.14931574600997624,-0.7605388910396161,-0.28028127245373374,0.881515173067521,-0.3371081970279303
0.73,-0.0769783542537367,-0.02767827571509584,0.17672125874223224,-0.04080985583703453,-0.30490069250478935,-0.11055698356963486,0.581997700450858,-0.15269481219866593,-0.7680304137813881,-0.2832187893584305,0.8681790345594222,-0.3386925328440186
0.74,-0.08006588628980323,-0.028798055017708313,0.18258441669842612,-0.04235376405492025,-0.3126180312984855,-0.11340371524686536,0.5906109020365445,-0.15608934718691014,-0.7754203559851338,-0.28612176010334306,0.8543859484969352,-0.34020202467616445
0.75,-0.0832309595090755,-0.029946446205617358,0.188533009523958,-0.0439316918549606,-0.3204087586673775,-0.11627930248619459,0.5990839292160735,-0.1594986045669894,-0.782708011054526,-0.2889898451961137,0.84014580101749,-0.3416370789483538
0.76,-0.08647430267117213,-0.03112373608450314,0.19456561328646424,-0.04554378274596965,-0.3282718482071404,-0.11918339473363931,0.6074123608059625,-0.16292184199542398,-0.7898926723932378,-0.2918227051443846,0.8254684782585158,-0.3429981020845728
0.77,-0.0897966342363387,-0.032330207937531386,0.20068076033605348,-0.04719017283364788,-0.3362062664474856,-0.12211563804029277,0.6155918744841036,-0.16635832119297422,-0.7969736334049422,-0.29462000045579817,0.8103638663574412,-0.34428550050880724
0.78,-0.09319866229478807,-0.03356614149140414,0.20687694029392012,-0.048870990861224595,-0.3442109728521614,-0.12507567506232453,0.6236182467897623,-0.1698073079446401,-0.8039501874933119,-0.29738139163799654,0.7948418514516962,-0.34549968064504333
0.79,-0.09668108449604075,-0.03483181288241051,0.213152601040958,-0.050586358250100286,-0.352284919818953,-0.1280631450609808,0.6314873531235801,-0.17326807209966172,-0.8108216280620205,-0.3001065391986221,0.7789123196787098,-0.3466410489172669
0.8,-0.10024458797826535,-0.03612749462247746,0.21950614970637436,-0.05233638914048904,-0.3604270526796819,-0.1310776839025839,0.6391951677475707,-0.17673988757151873,-0.8175872485147406,-0.30279510364531714,0.7625851571759115,-0.3477100117494641
0.81,-0.10388984929761884,-0.03745345556522056,0.2259359536563034,-0.05412119043206094,-0.3686363097002068,-0.13411892405853285,0.6467377637851236,-0.18022203233793088,-0.824246342255145,-0.30544674548572376,0.7458702500807307,-0.34870697556562086
0.8200000000000001,-0.10761753435758689,-0.03880996087199473,0.23244034148241996,-0.05594086182458445,-0.3769116220804227,-0.1371864946053029,0.6541113132210021,-0.18371378844085767,-0.8307982026869071,-0.3080611252274844,0.7287774845305965,-0.34963234678972316
0.8300000000000001,-0.11142829833832446,-0.040197271977945065,0.23901760399055366,-0.057795495858568885,-0.3852519139542616,-0.14028002122444583,0.6613120869013438,-0.18721444198649845,-0.8372421232137,-0.3106379033782413,0.7113167466629382,-0.35048653184575707
0.84,-0.11532278562599589,-0.04161564655805754,0.24566599518930218,-0.05968517795590669,-0.3936561023896924,-0.14339912620258985,0.6683364545336605,-0.19072328314529252,-0.8435773972391961,-0.3131767404456367,0.6934979226151855,-0.35126993715770854
0.85,-0.11930162974211542,-0.04306533849320977,0.2523837332786452,-0.061609986460515936,-0.4021230973887202,-0.14654342843143953,0.6751808846868386,-0.19423960615191896,-0.8498033181670689,-0.31567729693731283,0.6753308985247678,-0.3519829691495636
0.86,-0.12336545327288753,-0.044546597836221835,0.2591690016385581,-0.06356999267898267,-0.41065180188738726,-0.14971254340777584,0.6818419447911384,-0.19776270930529674,-0.8559191794009913,-0.31813923336091204,0.6568255605291137,-0.3526260342453083
0.87,-0.12751486779854734,-0.046059670777906986,0.26601994981762594,-0.06556526092120334,-0.41924111175577244,-0.15290608323345634,0.688316301138195,-0.20129189496858474,-0.8619242743446364,-0.3205622102240766,0.6379917947656535,-0.3531995388689287
0.88,-0.1317504738227009,-0.047604799613122445,0.2729346945216567,-0.06759584854102715,-0.4278899157979913,-0.15612365661541477,0.694600718881017,-0.20482646956918155,-0.8678178964016767,-0.32294588803444874,0.6188394873718157,-0.3537038894444105
0.89,-0.13607286070166558,-0.04918222270682012,0.2799113206022955,-0.06966180597689853,-0.4365970957521962,-0.15936486886566148,0.700692062033988,-0.20836574359872576,-0.8735993389757858,-0.32528992729967077,0.5993785244850299,-0.35413949239574005
0.9,-0.1404826065738105,-0.05079217446009747,0.2869478820456382,-0.0717631767924995,-0.44536152629057624,-0.16262932190128315,0.7065872934728659,-0.21190903161309582,-0.8792678954706363,-0.3275939885273849,0.5796187922427257,-0.3545067541469032
0.91,-0.1449802782888969,-0.052434885276248136,0.29404240296084505,-0.07389999771739203,-0.454182075019357,-0.16591661424444296,0.7122834749347823,-0.2154556522324099,-0.8848228592899016,-0.32985773222523346,0.5595701767823325,-0.35480608112188594
0.92,-0.14956643133741832,-0.054110581526812807,0.3011928785687544,-0.07607229868766045,-0.4630576024788012,-0.1692263410223804,0.7177777670182436,-0.21900492814102618,-0.8902635238372543,-0.33208081890085867,0.5392425642412788,-0.3550378797446743
0.93,-0.15424160977994122,-0.05581948551762994,0.3083972761904967,-0.07828010288655397,-0.471986962143208,-0.17255809396741154,0.7230674291831305,-0.2225561860875427,-0.8955891825163675,-0.33426290906190287,0.5186458407569946,-0.35520255643925436
0.9400000000000001,-0.1590063461764452,-0.057561815454886534,0.31565353623610803,-0.08052342678512886,-0.4809690004209134,-0.1759114614169287,0.7281498197506975,-0.2261087568847972,-0.9007991287309144,-0.33640366321600834,0.4977898924669095,-0.35530051762961196
0.9500000000000001,-0.16386116151566352,-0.05933778541116892,0.3229595731931438,-0.08280228018289107,-0.49000255665429004,-0.17928602831340074,0.733022395903574,-0.2296619754098675,-0.9058926558845677,-0.3385027418708172,0.4766846055084525,-0.35533216973973325
0.96,-0.1688065651444231,-0.061147605291513446,0.33031327661529264,-0.08511666624843842,-0.49908646311974736,-0.1826813762043729,0.7376827136857635,-0.2332151806040711,-0.9108690573810007,-0.34055980553397197,0.45533986601905274,-0.3552979191936042
0.97,-0.17384305469698533,-0.06299148079945732,0.3377125121109901,-0.0874665815601032,-0.5082195450277316,-0.1860970832424668,0.7421284280026434,-0.23676771547296532,-0.9157276266238863,-0.34257451471311473,0.43376556013613954,-0.35519817241521084
0.98,-0.1789711160243862,-0.06486961340308939,0.3451551223320324,-0.08985201614659444,-0.5174006205227255,-0.18953272418538064,0.7463572926209661,-0.24031892708634772,-0.9204676570168971,-0.34454652991588774,0.4119715739971425,-0.355033335828539
0.99,-0.18419122312377673,-0.0667822003011008,0.35263892796219004,-0.09227295352764031,-0.5266285006832487,-0.19298787039588877,0.7503671601688574,-0.24386816657825516,-0.925088441963707,-0.3464755116499334,0.389967793739491,-0.35480381585757487
1.0,-0.18950383806776325,-0.06872943438883586,0.3601617287058218,-0.09472937075463064,-0.5359019895218577,-0.1964620898418423,0.7541559821358184,-0.24741478914696483,-0.9295892748679884,-0.34836112042289397,0.367764105500614,-0.3545100189263045
1.01,-0.19490941093374792,-0.07071150422434277,0.3677213042764883,-0.09722123845125911,-0.5452198839851458,-0.19995494709616857,0.7577218088727238,-0.25095815405499355,-0.9339694491334136,-0.3502030167424115,0.34537039541794123,-0.35415235145871365
1.02,-0.20040837973326897,-0.07272859399442438,0.37531541538556573,-0.09974852085416586,-0.5545809739537423,-0.20346600333687123,0.7610627895918227,-0.25449762462909803,-0.9382282581636572,-0.35200086111612866,0.322796549628902,-0.3537312198787887
1.03,-0.20600117034134113,-0.07478088348068894,0.38294180473085954,-0.10231117585357972,-0.5639840422423139,-0.20699481634703057,0.7641771723667387,-0.2580325682602748,-0.942364995362391,-0.35375431405168745,0.30005245427092564,-0.35324703061051527
1.04,-0.21168819642579595,-0.07686854802560092,0.39059819798521855,-0.10490915503396078,-0.573427864599564,-0.21054094051480327,0.7670633041324695,-0.26156235640376047,-0.9463789541332884,-0.35546303605673013,0.2771479954814408,-0.35270019007787956
1.05,-0.21746985937662228,-0.07899175849853171,0.39828230478514837,-0.10754240371464266,-0.5829112097082325,-0.2141039268334223,0.7697196306853873,-0.2650863645790312,-0.9502694278800226,-0.357126687638899,0.2540930593978776,-0.35209110470486754
1.06,-0.2233465482353064,-0.08115068126181044,0.4059918197194249,-0.11021086099047485,-0.592432839185096,-0.21768332290119713,0.7721446966832382,-0.26860397236980316,-0.9540357100062659,-0.3587449293058364,0.23089753215766512,-0.35142018091546523
1.07,-0.22931863962417265,-0.08334547813677468,0.4137244233177087,-0.11291445977246532,-0.6019915075809684,-0.22127867292151374,0.7743371456451432,-0.2721145634240325,-0.957677093915692,-0.3603174215651846,0.20757129989823297,-0.3506878251336586
1.08,-0.23538649767572378,-0.08557630636982128,0.4214777830391584,-0.11565312682842277,-0.6115859623806995,-0.22488951770283436,0.7762957199515969,-0.27561752545391494,-0.9611928730119736,-0.3618438249245858,0.18412424875700995,-0.3498944437834337
1.09,-0.24155047396198095,-0.08784331859845707,0.4292495542610441,-0.118426782823599,-0.6212149440031762,-0.22851539465869775,0.7780192608444687,-0.27911225023588637,-0.9645823406987837,-0.3633237998916823,0.1605662648714261,-0.3490404432887764
1.1,-0.24781090742382464,-0.09014666281734965,0.437037381267362,-0.12123534236133147,-0.6308771858013226,-0.23215583780771915,0.7795067084270024,-0.28259813361062236,-0.9678447903797956,-0.3647570069741165,0.13690723437891006,-0.34812623007367305
1.11,-0.2541681243003346,-0.09248648234437815,0.44483889823744716,-0.12407871402368548,-0.6405714140620985,-0.23581037777359004,0.7807571016638154,-0.2860745754830383,-0.9709795154586819,-0.3661431066795305,0.11315704341689126,-0.3471522105621092
1.12,-0.26062243805813046,-0.09486291578668404,0.45265173023458793,-0.12695680041209678,-0.6502963480065014,-0.2394785417850785,0.7817695783809,-0.28954097982228966,-0.9739858093391158,-0.3674817595155666,0.08932557812279962,-0.3461187911780712
1.1300000000000001,-0.26717414932071193,-0.09727609700672182,0.46047349419463934,-0.1298694981880138,-0.660050699789565,-0.2431598536760289,0.7825433752656226,-0.29299675466177144,-0.97686296542477,-0.3687726259898671,0.06542272463406373,-0.3450263783455449
1.1400000000000001,-0.27382354579779933,-0.09972615508830979,0.46830179991463705,-0.13281669811354016,-0.6698331745003597,-0.24685383388536217,0.7830778278667239,-0.29644131209911884,-0.9796102771193181,-0.3700153666100743,0.04145836908811329,-0.34387537848851635
1.1500000000000001,-0.28057090221467373,-0.10221321430268088,0.47613425104141094,-0.13579828509207706,-0.6796424701619931,-0.2505599994570755,0.783372370594319,-0.2998740682962067,-0.9822270378264328,-0.3712096418838304,0.01744239762237787,-0.34266619803097154
1.16,-0.28741648024151756,-0.10473739407453336,0.4839684460601988,-0.13881413820896557,-0.6894772777316093,-0.2542778640402428,0.7834265367198969,-0.30329444347914986,-0.9847125409497867,-0.37235511231877766,-0.006615303625714164,-0.34139924339689637
1.17,-0.2943605284227549,-0.10729880894808164,0.4918019792832604,-0.14186413077212917,-0.6993362811003885,-0.25800693788901385,0.7832399583763213,-0.3067018619383028,-0.9870660798930532,-0.37345143842255846,-0.03070484851873201,-0.34007492101027703
1.18,-0.3014032821063918,-0.10989756855310696,0.499632441838491,-0.1449481303527161,-0.709218157093549,-0.26174672786261555,0.7828123665578306,-0.3100957520282602,-0.9892869480599057,-0.3744982807028151,-0.05481635091924719,-0.3386936372950995
1.19,-0.30854496337335646,-0.11253377757100827,0.5074574226580348,-0.14806599882574162,-0.7191215754703443,-0.2654967374253506,0.7821435911200363,-0.3134755461678562,-0.9913744388540164,-0.37549529966718975,-0.07893992468983113,-0.33725579867534966
1.2,-0.3157857809668402,-0.1152075357008529,0.5152745094668993,-0.15121759241073066,-0.7290451989240658,-0.2692564666465985,0.7812335607799252,-0.31684068084016526,-0.9933278456790586,-0.37644215582332463,-0.10306568369305269,-0.3357618115750136
1.21,-0.32312593022163705,-0.11791893762542736,0.5230812897715689,-0.15440276171236011,-0.7389876830820409,-0.2730254122008151,0.7800823031158579,-0.3201905965925012,-0.9951464619387054,-0.37733850967886207,-0.12718374179148406,-0.3342120824180772
1.22,-0.33056559299348476,-0.1206680729772881,0.5308753518486178,-0.15762135176110104,-0.7489476765056341,-0.27680306736753263,0.7786899445675695,-0.32352473803641807,-0.99682958103663,-0.37818402174144455,-0.1512842128476949,-0.33260701762852685
1.23,-0.33810493758840493,-0.12345502630481227,0.5386542857333253,-0.16087320205386146,-0.7589238206902466,-0.28058892203135966,0.7770567104361696,-0.3268425538477097,-0.9983764963765049,-0.378978352518714,-0.1753572107242567,-0.33094702363034806
1.24,-0.3457441186920431,-0.1262798770382485,0.5464156842082879,-0.16415814659462838,-0.7689147500653163,-0.2843824626819813,0.7751829248841413,-0.3301434967664095,-0.9997865013620034,-0.3797211625183128,-0.19939284928373924,-0.32923250684752714
1.25,-0.35348327729900947,-0.12914269945576762,0.5541571437920343,-0.16747601393511033,-0.7789190919943177,-0.28818317241415914,0.7730690109353431,-0.3334270235967914,-1.0010588893967984,-0.3804121122478834,-0.22338124238871393,-0.32746387370404995
1.26,-0.3613225406422193,-0.13204356264951353,0.5618762657276384,-0.1708266272153799,-0.7889354667747621,-0.29199053092773103,0.7707154904750071,-0.33669259520736833,-1.0021929538845629,-0.38105086221506784,-0.24731250390175163,-0.32564153062390255
1.27,-0.3692620221222332,-0.13498253049165382,0.5695706569713335,-0.17420980420451598,-0.7989624876381979,-0.2958040145276114,0.7681229842497393,-0.3399396765308938,-1.00318798822897,-0.3816370729275085,-0.27117674768542244,-0.32376588403107104
1.28,-0.377301821236597,-0.13795966160043063,0.5772379311811253,-0.17762535734124602,-0.8089987607502093,-0.2996230961237909,0.7652922118675212,-0.3431677365643608,-1.004043285833693,-0.3821704048928478,-0.2949640876022971,-0.32183734034954126
1.29,-0.3854420235091831,-0.1409750093062114,0.5848757097054071,-0.18107309377458886,-0.8190428852104181,-0.30344724523133676,0.7622239917977076,-0.3463762483690022,-1.0047581401024042,-0.3826505186187277,-0.3186646375149461,-0.3198563060032993
1.3,-0.39368270041953,-0.14402862161753963,0.5924816225715721,-0.18455281540449664,-0.8290934530524829,-0.3072759279703927,0.7589192413710274,-0.349564689070291,-1.0053318444387769,-0.3830770746127906,-0.34226851128594027,-0.3178231874163312
1.31,-0.40202390933218307,-0.1471205411871856,0.6000533094746274,-0.18806431892249764,-0.8391490492440983,-0.3111086070661787,0.7553789767795855,-0.35273253985793973,-1.0057636922464843,-0.38344973338267885,-0.3657658227778504,-0.3157383910126228
1.32,-0.41046569342603473,-0.15025080527819717,0.6075884207658082,-0.19160739585233827,-0.8492082516869959,-0.3149447418489912,0.7516043130768588,-0.35587928598590096,-1.0060529769291993,-0.3837681554360346,-0.3891466858532471,-0.3136023232161603
1.33,-0.4190080816236649,-0.15341944572995062,0.6150846184411918,-0.19518183259062571,-0.8592696312169446,-0.3187837882542031,0.7475964641777004,-0.35900441677236705,-1.0061989918905947,-0.38403200128050036,-0.41240121437470123,-0.3114153904509296
1.34,-0.42765108852068157,-0.15662648892420128,0.6225395771303104,-0.19878741044747048,-0.8693317516037492,-0.3226251988222637,0.7433567428583361,-0.3621074255997703,-1.0062010305343436,-0.3842409314237181,-0.4355195222047834,-0.30917799914091676
1.35,-0.4363947143150607,-0.1598719557511344,0.6299509850847653,-0.20242390568712826,-0.8793931695512516,-0.3264684226986988,0.7388865607563675,-0.3651878099147827,-1.0060583862641195,-0.38439460637333034,-0.45849172320606424,-0.3068905557101078
1.36,-0.44523894473648695,-0.16315586157541573,0.637316545166841,-0.20609108956864292,-0.8894524346973305,-0.3303129056341105,0.734187428370769,-0.3682450712283164,-1.0057703524835948,-0.3844926866369792,-0.4813079312411138,-0.3045534665824888
1.37,-0.4541837509756941,-0.16647821620224265,0.6446339758381184,-0.2097887283864886,-0.8995080896139015,-0.33415808998417734,0.7292609550618907,-0.3712787151155232,-1.0053362225964424,-0.384534832722307,-0.5039582601725037,-0.30216713818204544
1.3800000000000001,-0.463229089613805,-0.16983902384339455,0.6519010121480892,-0.21351658351121208,-0.9095586698069162,-0.3380034147096544,0.7241088490514559,-0.37428825121579457,-1.0047552900063355,-0.38452070513695596,-0.5264328238628038,-0.299731976932764
1.3900000000000001,-0.4723749025516723,-0.17323828308328376,0.6591154067227682,-0.21727441143007525,-0.9196027037163638,-0.34184831537637295,0.718732917422563,-0.3772731932327622,-1.0040268481169474,-0.3844499643885684,-0.5487217361745852,-0.2972483892586304
1.4000000000000001,-0.4816211169392189,-0.17667598684500638,0.666274930753309,-0.2210619637876976,-0.9296387127162697,-0.34569222415524103,0.7131350661196839,-0.3802330589342976,-1.0031501903319506,-0.3843222709847866,-0.5708151109704189,-0.2947167815836307
1.41,-0.49096764510477797,-0.18015212235639294,0.6733773749846168,-0.2248789874266986,-0.9396652111146964,-0.3495345698222429,0.7073172999486658,-0.38316737015251195,-1.0021246100550185,-0.38413728543325276,-0.5927030621128748,-0.2921375603317508
1.42,-0.5004143844844333,-0.18366667111605914,0.6804205507039615,-0.22872522442833973,-0.9496807061537426,-0.353374777758439,0.7012817225767293,-0.3860756527837563,-1.0009494006898239,-0.3838946682416093,-0.6143757034645246,-0.2895111319269768
1.43,-0.5099612175513604,-0.1872196088594567,0.6874022907295924,-0.2326004121531675,-0.9596836980095443,-0.35721226994996685,0.6950305365324695,-0.38895743678862177,-0.9996238556400401,-0.38359407991749844,-0.6358231488879373,-0.2868379027932948
1.44,-0.5196080117451657,-0.19081090552492413,0.6943204503993516,-0.2365042832816554,-0.9696726797922737,-0.3610464649880396,0.6885660432058558,-0.3918122561919391,-0.9981472683093395,-0.38323518096856235,-0.6570355122456849,-0.2841182793546905
1.45,-0.5293546194012281,-0.19444052521973748,0.7011729085592882,-0.24043656585484646,-0.9796461375461403,-0.36487677806894747,0.6818906428482328,-0.3946396490827791,-0.9965189321013957,-0.3828176319024434,-0.6780029074003379,-0.28135266803515013
1.46,-0.5392008776800383,-0.19810842618616098,0.7079575685522709,-0.24439698331499551,-0.9896025502493898,-0.3687026209940567,0.6750068345723176,-0.39743915761445225,-0.9947381404198814,-0.3823410932267838,-0.698715448214467,-0.2785414752586598
1.47,-0.54914660849654,-0.201814560767498,0.7146723592066027,-0.2483852545462119,-0.9995403898143049,-0.3725234021698102,0.6679172163522034,-0.4002103280045092,-0.9928041866684696,-0.3818052254492259,-0.719163248550642,-0.27568510744920527
1.48,-0.5591916184494695,-0.20555887537414164,0.7213152358246346,-0.2524010939151014,-1.0094581210872051,-0.37633852660772704,0.6606244850233561,-0.4029527105347398,-0.9907163642508336,-0.38120968907741193,-0.7393364222714345,-0.2727839710307726
1.49,-0.569335698750697,-0.20934131044962564,0.727884181171379,-0.25644421131140915,-1.0193542018484465,-0.38014739592440305,0.6531314362826173,-0.4056658595511746,-0.9884739665706459,-0.3805541446189842,-0.7592250832394153,-0.26983847242734793
1.5,-0.579578625154566,-0.21316180043667501,0.7343772064631233,-0.26051431218866156,-1.029227082812422,-0.38394940834151026,0.6454409646882018,-0.4083493334640834,-0.9860762870315796,-0.37983825258158466,-0.7788193453171539,-0.26684901806291705
1.51,-0.5899201578872343,-0.21702027374325697,0.7407923523560447,-0.26461109760480916,-1.0390752076275607,-0.387743958685797,0.6375560636596995,-0.4110026947479762,-0.983522619037308,-0.37906167347285613,-0.7981093223672234,-0.2638160143614661
1.52,-0.6003600415760144,-0.2209166527086315,0.7471276899348224,-0.2687342642628686,-1.0488970128763295,-0.39153043838908835,0.6294798254780745,-0.41362550994160263,-0.9808122559915038,-0.3782240678004405,-0.817085128252191,-0.2607398677469812
1.53,-0.6108980051787133,-0.22485085356940235,0.7533813217012524,-0.2728835045515654,-1.0586909280752315,-0.3953082354882857,0.6212154412856642,-0.4162173496479523,-0.9779444912978406,-0.3773250960719803,-0.8357368768346295,-0.25762098464344824
1.54,-0.621533761912973,-0.2288227864255674,0.7595513825628608,-0.27705850658597597,-1.0684553756748059,-0.39907673462536664,0.6127662010861816,-0.41877778853425474,-0.9749186183599905,-0.3763644187951176,-0.8540546819771102,-0.2544597714748531
1.55,-0.632267009185612,-0.23283235520657,0.7656360408215181,-0.28125895424817027,-1.0781887710596294,-0.40283531704738545,0.6041354937447133,-0.42130640533197916,-0.971733930581627,-0.3753416964774947,-0.8720286575422015,-0.251256634665182
1.56,-0.6430974285219637,-0.23687945763734924,0.7716334991620521,-0.2854845272278544,-1.0878895225483156,-0.4065833606064728,0.5953268069877204,-0.42380278283683476,-0.9683897213664232,-0.3742565896267539,-0.8896489173924761,-0.24801198063842061
1.57,-0.6540246854952183,-0.24096398520439094,0.7775419956408622,-0.28973490106301236,-1.097556031393514,-0.41032023975983567,0.586343727403038,-0.4262665079087706,-0.964885284118052,-0.3731087587505375,-0.9069055753905043,-0.24472621581855536
1.58,-0.665048429655763,-0.24508582312177835,0.7833598046745334,-0.2940097471805491,-1.1071866917819115,-0.4140453255697575,0.5771899404398755,-0.4286971714719754,-0.9612199122401863,-0.3718978643564877,-0.9237887453988556,-0.24139974662957198
1.59,-0.6761682944605214,-0.249244850297243,0.7890852380284488,-0.29830873293693255,-1.1167798908342317,-0.4177579857035981,0.5678692304088178,-0.4310943685148782,-0.957392899136499,-0.37062356695224696,-0.9402885412801019,-0.2380329794954567
1.6,-0.6873838972022951,-0.2534409392982154,0.7947166458054051,-0.30263152165883633,-1.1263340086052345,-0.4214575844337939,0.5583854804818222,-0.43345769809014745,-0.9534035382106634,-0.3692855270454572,-0.9563950768968136,-0.23462632084019514
1.61,-0.698694838939103,-0.2576739563178757,0.8002524174342256,-0.30697777268378157,-1.1358474180837168,-0.4251434826378575,0.5487426726922215,-0.43578676331469157,-0.9492511228663523,-0.367883405143761,-0.9720984661115608,-0.23118017708777377
1.62,-0.7101007044235222,-0.2619437611412046,0.805690982658372,-0.31134714140078,-1.145318485192512,-0.42881503779837826,0.5389448879347223,-0.4380811713696591,-0.9449349465072387,-0.3664168617548006,-0.987388822786915,-0.22769495466217826
1.6300000000000001,-0.7216010620320289,-0.2662502071110342,0.8110308125245624,-0.3157392792909759,-1.1547455687884909,-0.4324716040030214,0.5289963059654058,-0.44034053350043784,-0.9404543025369959,-0.3648855573862183,-1.0022562607854457,-0.22417105998739478
1.6400000000000001,-0.7331954636943375,-0.2705931410940985,0.8162704203713812,-0.32015383396828867,-1.1641270206625605,-0.4361125319445293,0.5189012054017277,-0.44256446501665625,-0.9358084843592963,-0.36328915254565597,-1.016690893969725,-0.22060889948740936
1.6500000000000001,-0.744883444822742,-0.27497240344708435,0.8214083628178941,-0.3245904492200552,-1.1734611855396644,-0.4397371689207202,0.508663963722517,-0.44475258529218203,-0.9309967853778132,-0.36162730774075647,-1.0306828362023226,-0.21700887958620774
1.6600000000000001,-0.756664524241456,-0.2793878279826821,0.8264432407522625,-0.3290487650476721,-1.1827464010787831,-0.4433448588344889,0.4982890572679781,-0.44690451776512297,-0.92601849899622,-0.3598996834791617,-1.044222201345809,-0.21337140670777632
1.67,-0.7685382041159531,-0.2838392419356365,0.8313737003203565,-0.3335284177072386,-1.191980997872934,-0.44693494219380653,0.4877810612396892,-0.4490198899378267,-0.9208729186181894,-0.35810594026851406,-1.057299103262756,-0.2096968872761008
1.68,-0.7805039698823066,-0.28832646592879735,0.836198433914369,-0.33802903975019816,-1.2011632994491712,-0.45050675611172114,0.4771446497006029,-0.4510983333768808,-0.9155593376473941,-0.3562457386164558,-1.0699036558157329,-0.2059857277151673
1.69,-0.7925612901765321,-0.2928493139391705,0.8409161811614292,-0.3425502600639819,-1.2102916222685847,-0.45405963430635643,0.46638459557504575,-0.4531394837131124,-0.9100770494875075,-0.35431873903062905,-1.0820259728673114,-0.2022383344489617
1.7,-0.8047096167639246,-0.29740759326396815,0.8455257299122163,-0.34709170391264976,-1.2193642757263032,-0.4575929071009133,0.45550577064871955,-0.4551429806415891,-0.9044253475422026,-0.35232460201867644,-1.0936561682800616,-0.1984551139014703
1.71,-0.8169483844684015,-0.30200110448665995,0.8500259172295732,-0.35165299297753383,-1.2283795621514897,-0.46110590142366836,0.4445131455686989,-0.4571084679216175,-0.8986035252151514,-0.3502629880882397,-1.104784355916555,-0.19463647249667868
1.72,-0.8292770111018418,-0.30662964144302385,0.8544156303771213,-0.35623374539788083,-1.2373357768073459,-0.46459794080797534,0.4334117898434341,-0.45903559337674493,-0.8926108759100285,-0.34813355774696164,-1.1154006496393614,-0.19078281665857325
1.73,-0.8416948973934265,-0.31129299118719667,0.8586938078078726,-0.36083357581149356,-1.246231207891109,-0.46806834539226355,0.42220687184274863,-0.46092400889475793,-0.8864466930305062,-0.34593597150248434,-1.1254951633110513,-0.1868945528111398
1.74,-0.8542014269189796,-0.3159909339577247,0.8628594401528444,-0.3654520953953741,-1.2550641365340538,-0.4715164319200398,0.4109036587978414,-0.4627733704276833,-0.880110269980257,-0.34366988986244984,-1.1350580107941959,-0.18297208737836432
1.75,-0.8667959660303077,-0.3207232431436149,0.8669115712096727,-0.3700889119063662,-1.2638328368014906,-0.47494151373988625,0.3995075168012847,-0.46458333799178736,-0.8736009001629548,-0.341334973334501,-1.1440793059513656,-0.17901582678423303
1.76,-0.8794778637845407,-0.3254896852503854,0.8708492989312264,-0.3747436297217972,-1.272535575692768,-0.47834290080546216,0.3880239108070253,-0.4663535756675767,-0.8669178769822719,-0.33893088242627933,-1.1525491626451312,-0.17502617745273163
1.77,-0.8922464518734722,-0.3302900198661163,0.8746717764142207,-0.3794158498801209,-1.2811706131412706,-0.48171989967550305,0.37645840463038466,-0.4680837515997974,-0.8600604938418814,-0.3364572776454275,-1.1604576947380636,-0.1710035458078463
1.78,-0.9051010445529001,-0.3351239996275002,0.8783782128878305,-0.38410517012155965,-1.2897362020144192,-0.48507181351382084,0.3648166609480583,-0.4697735379974357,-0.8530280441454561,-0.33391381949958787,-1.167795016092733,-0.166948338273563
1.79,-0.9180409385719662,-0.3399913701858938,0.8819678747023052,-0.3888111849287469,-1.298230588113672,-0.48839794208930376,0.3531044412981158,-0.47142261113371736,-0.8458198212966703,-0.33130016849640276,-1.174551240571711,-0.16286096127386787
1.8,-0.9310654131024974,-0.3448918701733673,0.885440086317581,-0.39353348556736945,-1.3066520101745236,-0.4916975817759165,0.34132760608000123,-0.47303065134610817,-0.8384351186991956,-0.328615985143514,-1.1807164820375666,-0.1587418212327466
1.81,-0.9441737296683456,-0.3498252311687565,0.888794231291896,-0.3982716601268102,-1.3149986998665057,-0.4949700255527004,0.3294921145545329,-0.4745973430363142,-0.8308732297567052,-0.3258609299485642,-1.1862808543528722,-0.15459132457418553
1.82,-0.9573651320747282,-0.3547911776637128,0.8920297532704031,-0.40302529356079003,-1.3232688817931864,-0.49821456300377304,0.31760402484390365,-0.4761223746702805,-0.8231334478728725,-0.3230346634191957,-1.191234471380197,-0.1504098777221706
1.83,-0.9706388463375688,-0.3597894270287542,0.8951461569737844,-0.40779396772801074,-1.3314607734921708,-0.5014304803183285,0.3056694939316802,-0.47760543877819267,-0.8152150664513703,-0.3201368460630506,-1.195567446982113,-0.14619788710068762
1.84,-0.9839940806128367,-0.3648196894793158,0.8981430091868634,-0.41257726143279694,-1.3395725854351006,-0.5046170602906369,0.29369477766280416,-0.479046231954476,-0.8071173788958723,-0.3171671383877713,-1.1992698950211895,-0.14195575913372294
1.85,-0.997430025125888,-0.36988166804180117,0.9010199397472213,-0.41737475046573874,-1.3476025210276539,-0.5077735823200455,0.2816862307435907,-0.4804444548577955,-0.7988396786100502,-0.31412520090099993,-1.2023319293599979,-0.13768390024526223
1.86,-1.010945852100806,-0.3749750585196324,0.9037766425338085,-0.42218600764433445,-1.3555487766095462,-0.5108993224109775,0.26965030674172985,-0.48179981221105617,-0.7903812589975778,-0.3110106941103788,-1.2047436638611095,-0.1333827168592915
1.87,-1.024540715689741,-0.38009954945930136,0.9064128764555595,-0.4270106028536319,-1.3634095414545286,-0.5139935531729324,0.2575935580862856,-0.4831120128014028,-0.7817414134621279,-0.30782327852355035,-1.2064952123870936,-0.12905261539979698
1.8800000000000001,-1.0382137519022512,-0.3852548221164202,0.9089284664400057,-0.4318481030868724,-1.3711829977703909,-0.5170555438204866,0.24552263606769642,-0.4843807694802203,-0.7729194354073742,-0.3045626146481569,-1.2075766888005217,-0.12469400229076469
1.8900000000000001,-1.051964078534643,-0.39044055042177245,0.9113233044218909,-0.4366980724861318,-1.3788673206989575,-0.5200845601732925,0.23344429083777507,-0.485605799163133,-0.7639146182369878,-0.30122836299184,-1.2079782069639649,-0.12030728395618026
1.9000000000000001,-1.0657907950993106,-0.39565640094736326,0.9135973503317829,-0.44156007238296335,-1.3864606783160909,-0.5230798646560791,0.22136537140970858,-0.4867868228300053,-0.754726255354644,-0.29782018406224287,-1.2076898807399934,-0.11589286682003014
1.9100000000000001,-1.0796929827540782,-0.4009020328724705,0.9157506330846885,-0.4464336613390405,-1.3939612316316894,-0.526040716298652,0.20929282565805796,-0.48792356552494165,-0.7453536401640142,-0.2943377383670071,-1.2067018239911769,-0.11145115730629998
1.92,-1.0936697042315375,-0.4061770979496957,0.9177832515686672,-0.4513183951867986,-1.401367134589689,-0.5289663707358927,0.1972337003187592,-0.4890157563562861,-0.7357960660687717,-0.2907806864137752,-1.2050041505800877,-0.10698256183897573
1.93,-1.1077200037683919,-0.4114812404710144,0.9196953756334447,-0.456213827070078,-1.4086765340680618,-0.5318560802077595,0.18519514098912182,-0.4900631284966225,-0.7260528264725905,-0.2871486887101898,-1.2025869743692947,-0.10248748684204395
1.94,-1.1218429070347922,-0.41681409723382706,0.9214872470790263,-0.4611195074847656,-1.4158875698788167,-0.5347090935592873,0.17318439212783032,-0.4910654191827749,-0.7161232147791419,-0.2834414057638924,-1.1994404092213713,-0.09796633873949012
1.95,-1.136037421063681,-0.4221752975070099,0.9231591806443114,-0.46603498431943813,-1.4229983747679997,-0.5375246562405873,0.16120879705494306,-0.49202236971580676,-0.7060065243921008,-0.27965849808252624,-1.1955545689988853,-0.09341952395530051
1.96,-1.150302534180132,-0.4275644629969659,0.9247115649957067,-0.4709598028960041,-1.4300070744156923,-0.5403020103068465,0.1492757979518926,-0.492933725461022,-0.6957020487151385,-0.27579962617373255,-1.1909195675644084,-0.088847448913461
1.97,-1.164637215930689,-0.43298120781367483,0.9261448637157401,-0.47589350601034613,-1.4369117874360147,-0.5430403944183294,0.13739293586148615,-0.49379923584796387,-0.6852090811519289,-0.2718644505451544,-1.1855255187805123,-0.0842505200379575
1.98,-1.179040417012707,-0.43842513843674485,0.9274596162916746,-0.48083563397296347,-1.4437106253771224,-0.5457390438403757,0.1255678506879052,-0.4946186543704155,-0.6745269151061455,-0.267852631704434,-1.1793625365097655,-0.07962914375277655
1.99,-1.1935110692036932,-0.4438958536814629,0.9286564391041217,-0.4857857246496146,-1.4504016927212078,-0.5483971904434027,0.11380828119670516,-0.49539173858640034,-0.6636548439814599,-0.2637638301592131,-1.1724207346147413,-0.0749837264819034
2.0,-1.2080480852906466,-0.449392944664845,0.9297360264156551,-0.49074331350195916,-1.4569830868845002,-0.5510140627029037,0.10212206501481635,-0.4961182501181811,-0.6525921611815471,-0.25959770641713453,-1.1646902269580077,-0.07031467464932475
2.0100000000000002,-1.2226503589993996,-0.45491599477168815,0.9306991513594254,-0.49570793362820087,-1.4634528982172668,-0.5535888856994481,0.09051713863054223,-0.4967979546522611,-0.6413381601100778,-0.2553539209858405,-1.1561611274021368,-0.0656223946790263
2.02,-1.237316764923956,-0.46046457962062,0.9315466669277723,-0.5006791158037295,-1.4698092100038092,-0.556120881118682,0.07900153739356253,-0.4974306219393827,-0.6298921341707265,-0.25103213437297267,-1.1468235498097004,-0.06090729299499392
2.0300000000000002,-1.2520461584558336,-0.46603826703015,0.9322795069608397,-0.5056563885217634,-1.4760500984624672,-0.5586092672513278,0.0675833955149292,-0.4980160257945284,-0.6182533767671652,-0.24663200708617378,-1.1366676080432674,-0.05616977602121344
2.04,-1.2668373757134044,-0.47163661698472076,0.9328986871351888,-0.5106392780339922,-1.4821736327456172,-0.5610532589931844,0.05627094606706906,-0.498553944096921,-0.6064211813030677,-0.24215319963308612,-1.1256834159654086,-0.05141025018167131
2.05,-1.2816892334712333,-0.47725918160075764,0.9334053059524118,-0.515627308391219,-1.4881778749396717,-0.5634520678451271,0.045072520983784226,-0.49904415879002273,-0.5943948411821065,-0.237595372521352,-1.113861087438696,-0.04662912190035334
2.06,-1.2966005290894205,-0.4829055050927205,0.9338005457277457,-0.5206200014840024,-1.4940608800650816,-0.565804901913108,0.03399655106024979,-0.4994864558815355,-0.5821736498079555,-0.23295818625861356,-1.1011907363256979,-0.041826797601245656
2.07,-1.3115700404429393,-0.48857512373915374,0.9340856735786865,-0.5256168770832992,-1.4998206960763323,-0.5681109659081548,0.02305156595301605,-0.49988062544340156,-0.5697569005842864,-0.22824130135251297,-1.0876624764889875,-0.037003683708334095
2.08,-1.3265965258509793,-0.49426756584873777,0.9342620424136022,-0.5306174528811071,-1.5054553638619474,-0.5703694611463724,0.01224619418000783,-0.5002264616118026,-0.5571438869147742,-0.2234443783106932,-1.0732664217911336,-0.03216018664560511
2.09,-1.3416787240062855,-0.49998235172633926,0.9343310919203471,-0.5356212445311066,-1.5109629172444872,-0.5725795855489416,0.0015891631205227075,-0.5005237625871609,-0.5443339022030896,-0.21856707764079553,-1.0579926860947075,-0.02729671283704408
2.1,-1.3568153539044985,-0.5057189936390621,0.9342943495548754,-0.5406277656893038,-1.5163413829805477,-0.5747405336421202,-0.008910700984765652,-0.5007723306341375,-0.5313262398529062,-0.21360905985046244,-1.041831383262281,-0.022413668706637045
2.11,-1.372005114773495,-0.5114769957822984,0.9341534315298546,-0.5456365280546728,-1.5215887807607624,-0.5768514965572415,-0.01924447303381105,-0.500971972081634,-0.5181201932678967,-0.20856998544733635,-1.0247726271564235,-0.017511460678369957
2.12,-1.3872466860027277,-0.5172558542457786,0.9339100438032801,-0.550647041409797,-1.5267031232098012,-0.5789116620307162,-0.02940312906319109,-0.501122497322792,-0.5047150558517365,-0.20344951493906024,-1.006806531639705,-0.012590495176229673
2.13,-1.4025387270725669,-0.5230550569796225,0.9335659830670877,-0.5556588136615135,-1.5316824158863718,-0.5809202144040309,-0.03937754624811041,-0.5012237208149923,-0.4911101210080968,-0.19824730883327576,-0.9879232105746971,-0.007651178624201857
2.14,-1.4178798774836405,-0.5288740837603908,0.9331231377357687,-0.5606713508815538,-1.536524657283217,-0.5828763346237488,-0.04915850290239887,-0.5012754610798563,-0.4773046821406493,-0.19296302763762463,-0.9681127778239722,-0.0026939174462715758
2.15,-1.4332687566861724,-0.5347124061571346,0.9325834889349824,-0.5656841573471871,-1.5412278388271174,-0.5847792002415093,-0.05873667847851216,-0.5012775407032447,-0.46329803265306985,-0.18759633185974994,-0.9473653472500977,0.0022808819335740915
2.16,-1.4487039640093269,-0.5405694874974472,0.9319491114901709,-0.5706967355818624,-1.54578994487889,-0.5866279854140284,-0.06810265356753198,-0.5012297863352583,-0.44908946594902727,-0.18214688200729304,-0.9256710327156464,0.007272813091350368
2.17,-1.4641840785905442,-0.546444782833514,0.931222174915172,-0.5757085863958505,-1.5502089527333887,-0.5884218609030986,-0.07724690989916483,-0.5011320286902379,-0.43467827543220006,-0.1766143385878981,-0.9030199480831873,0.01228146960306914
2.18,-1.4797076593048843,-0.5523377389081642,0.9304049444008333,-0.5807192089268871,-1.5544828326195033,-0.5901599940755886,-0.08615983034174379,-0.5009841025467637,-0.42006375450625716,-0.1709983621092055,-0.8794022072152933,0.017306445044746224
2.19,-1.495273244694367,-0.5582477941209206,0.9294997818036261,-0.5857281006808152,-1.5586095477001622,-0.5918415489034438,-0.09483169890222731,-0.5007858467476565,-0.40524519657487384,-0.16529861307885826,-0.8548079239745332,0.02234733299239472
2.2,-1.5108793528973103,-0.5641743784940512,0.9285091466342592,-0.5907347575722266,-1.5625870540723281,-0.5934656859636857,-0.10325270072619963,-0.500537104199976,-0.39022189504172156,-0.1595147520044984,-0.8292272122234792,0.027403727022029298
2.21,-1.526524481577673,-0.5701169136386196,0.9274355970462917,-0.5957386739651054,-1.5664133007670027,-0.5950315624384124,-0.1114129220978709,-0.5002377218750225,-0.3749931433104723,-0.15364643939376788,-0.8026501858247005,0.03247522070966399
2.22,-1.5422071078543935,-0.5760748127205353,0.9262817908247488,-0.6007393427134695,-1.5700862297492229,-0.5965383321147986,-0.11930235044007625,-0.499887550808336,-0.3595582347848023,-0.1476933357543101,-0.7750669586407679,0.0375614076313118
2.23,-1.5579256882307309,-0.5820474804266056,0.9250504863747326,-0.6057362552020139,-1.5736037759180626,-0.5979851453850951,-0.12691087431427722,-0.49948644609969617,-0.3439164628683826,-0.14165510159376685,-0.746467644534253,0.04266188136298718
2.24,-1.573678658523605,-0.5880343129305851,0.9237445437100383,-0.6107289013867518,-1.576963867106633,-0.5993711492466289,-0.13422828342056103,-0.49903426691312275,-0.32806712096488644,-0.13553139741977993,-0.7168423573677262,0.0477762354807047
2.25,-1.5894644337929373,-0.5940346978592271,0.9223669254417675,-0.6157167698356588,-1.5801644240820825,-0.6006954873018046,-0.1412442685976399,-0.4985308764768753,-0.3120095024779873,-0.12932188373999193,-0.6861812110037582,0.052904063560477776
2.2600000000000002,-1.6052814082709914,-0.6000480142583352,0.9209206977669406,-0.6206993477693137,-1.5832033605455942,-0.6019572997581015,-0.147948421822853,-0.497976142083453,-0.2957429008113569,-0.12302622106204478,-0.6544743193049183,0.05804495917832081
2.27,-1.6211279552917113,-0.6060736325588117,0.9194090314571123,-0.6256761211015412,-1.5860785831323891,-0.603155723428077,-0.15433023621216385,-0.4973699350895952,-0.279266609368669,-0.11664406989358149,-0.6217117961337792,0.06319851591024722
2.2800000000000002,-1.6370024272200652,-0.6121109145427113,0.9178352028469838,-0.6306465744800556,-1.588787991411726,-0.6042898917293635,-0.16037910602016248,-0.4967121309162812,-0.26257992155359583,-0.1101750907422434,-0.5878837553529113,0.06836432733227193
2.29,-1.6529031553813829,-0.6181592133092895,0.9162025948230181,-0.635610191327101,-1.5913294778868983,-0.605358934684671,-0.16608432664006478,-0.4960026090487294,-0.24568213076981324,-0.10361894411567363,-0.5529803108248839,0.07354198702040773
2.3000000000000003,-1.6688284499906978,-0.6242178732410543,0.9145146978120522,-0.6405664538800957,-1.5937009279952383,-0.6063619789217849,-0.1714350946037111,-0.4952412530363991,-0.2285725304209908,-0.09697529052151428,-0.5169915764122686,0.07873108855066918
2.31,-1.6847766000820874,-0.6302862299698178,0.912775110769912,-0.6455148432322737,-1.595900220108114,-0.607298147673568,-0.17642050758156974,-0.49442795049298904,-0.21125041391080324,-0.09024379046740706,-0.4799076659776349,0.08393122549907073
2.32,-1.7007458734380114,-0.6363636103427447,0.9109875421700253,-0.6504548393733266,-1.5979252255309289,-0.6081665607779587,-0.18102956438273227,-0.4935625930964374,-0.19371507464292242,-0.08342410446099467,-0.44171869338355596,0.08914199144162599
2.33,-1.7167345165186547,-0.6424493323884057,0.9091558109920361,-0.6553859212300475,-1.5997738085031252,-0.6089663346779726,-0.1852511649549176,-0.49264507658892276,-0.17596580602102346,-0.07651589300991953,-0.4024147724926004,0.09436297995434872
2.34,-1.7327407543912676,-0.6485427052828268,0.9072838477104179,-0.6603075667069714,-1.6014438261981814,-0.6096965824217003,-0.1890741103844697,-0.49167530077686306,-0.15800190144877718,-0.06951881662182367,-0.3619860171673397,0.09959378461325308
2.35,-1.7487627906595042,-0.6546430293155396,0.9053756952830878,-0.6652192527270198,-1.6029331287236117,-0.6103564136623109,-0.19248710289635865,-0.4906531695309168,-0.13982265432985896,-0.062432535804349654,-0.3204225412703434,0.10483399899435275
2.36,-1.7647988073927643,-0.6607495958556339,0.9034355101400197,-0.6701204552721414,-1.6042395591209682,-0.6109449346580482,-0.19547874585417951,-0.4895785907859821,-0.12142735806793892,-0.05525671106513913,-0.27771445866418354,0.11008321667366283
2.37,-1.780846965055533,-0.6668616873178058,0.9014675631718592,-0.675010649423955,-1.6053609533658393,-0.6114612482722331,-0.19803754376015348,-0.4884514765411962,-0.10281530606669176,-0.04799100291183511,-0.2338518832114298,0.11534103122719591
2.38,-1.7969054024367226,-0.6729785771284117,0.8994762407185355,-0.679889309404392,-1.6062951403678498,-0.6119044539732633,-0.20015190225512777,-0.48727174285993735,-0.08398579172978948,-0.040635071852079124,-0.1888249287746544,0.1206070362309673
2.39,-1.8129722365790104,-0.6790995296915158,0.8974660455578771,-0.684755908616339,-1.6070399419706625,-0.6122736478346122,-0.20181012811857477,-0.4860393098698229,-0.06493810846090808,-0.033188578393514634,-0.14262370921642553,0.12588082526098954
2.4,-1.8290455627081814,-0.6852238003549435,0.8954415978942242,-0.6896099196842799,-1.6075931729519743,-0.6125679225348301,-0.20300042926859302,-0.48475410176271044,-0.04567154966371678,-0.02565118304378239,-0.09523833839931584,0.13116199189327743
2.41,-1.8451234541624688,-0.6913506353763309,0.8934076363470431,-0.6944508144949384,-1.6079526410235208,-0.6127863673575428,-0.2037109147619068,-0.48341604679469646,-0.026185408741888905,-0.018022546310525495,-0.04665893018589573,0.136450129703846
2.42,-1.8612039623218903,-0.6974792718891756,0.8913690189395395,-0.6992780642379202,-1.6081161468310747,-0.612928068191454,-0.2039295947938656,-0.4820250772861189,-0.00647897909909978,-0.010302328701386032,0.0031244015612648113,0.14174483226870765
2.43,-1.877285116537594,-0.703608937868887,0.8893307240872725,-0.7040911394463557,-1.6080814839544455,-0.6129921075303431,-0.2036443806984443,-0.4805811296215547,0.01344844586098004,-0.0024901907240065246,0.05412154297959404,0.14704569316387694
2.44,-1.8933649240611956,-0.7097388520988387,0.8872978515867687,-0.7088895100375423,-1.607846438907477,-0.6129775644730655,-0.20284308494824474,-0.47908414424982043,0.033597572734675896,0.0054142071139712256,0.10634238020652198,0.15235230596536775
2.45,-1.9094413699741197,-0.7158682241364177,0.885275623604135,-0.7136726453535867,-1.607408791138052,-0.6128835147235538,-0.20151342115449397,-0.47753406568397294,0.053969108118313014,0.013411204304903779,0.1597967993794791,0.157664264249194
2.46,-1.9255124171169395,-0.7219962542790761,0.8832693856636733,-0.7184400142020473,-1.6067663130280896,-0.6127090305908166,-0.19964300406704377,-0.4759308425013088,0.07456375860822473,0.021501140341151415,0.21449468663589322,0.16298116159137088
2.47,-1.9415760060187175,-0.7281221335303806,0.8812846076364936,-0.7231910848965768,-1.6059167698935461,-0.6124531809889388,-0.19721934957437287,-0.47427442734336456,0.09538223080073005,0.029684354715068695,0.2704459281131939,0.16830259156790994
2.48,-1.9576300548263459,-0.734245043566065,0.8793268847291283,-0.7279253252975644,-1.6048579199844117,-0.6121150314370815,-0.19422987470358602,-0.47256477691591586,0.1164252312921612,0.0379611869190149,0.32766040994881074,0.17362814775482716
2.49,-1.973672459233888,-0.74036415670008,0.8774019384721454,-0.7326422028527783,-1.6035875144847178,-0.6116936440594833,-0.19066189762041139,-0.4708018519889798,0.13769346667884408,0.04633197644534803,0.386148018280172,0.17895742372813617
2.5,-1.9897010924119163,-0.7464786358506436,0.8755156177087624,-0.737341184638008,-1.60210329751253,-0.6111880775854588,-0.18650263762920513,-0.4689856173968121,0.15918764355710469,0.054797062786425266,0.4459186392447094,0.1842900130638503
2.5100000000000002,-2.005714457284179,-0.7525876779240238,0.8736723970573599,-0.7420218182721324,-1.60059854613293,-0.6106104793303109,-0.18219026000201416,-0.4671403010536495,0.14186602993244316,0.0607117221697232,0.4166581511499944,0.18477503287276612
2.52,-2.021713630408029,-0.7586906493676848,0.8718708472649003,-0.7466839743153045,-1.5992639187463322,-0.6099740601411856,-0.17816745707509046,-0.46529008167348335,0.12516186657192319,0.0665612818164009,0.38800292238978934,0.1852705724434074
2.5300000000000002,-2.0377002822487227,-0.7647869652240501,0.8701081027696672,-0.7513276032159686,-1.5980932702016315,-0.60927947004841,-0.1744281995591387,-0.4634348554993324,0.109069283169465,0.07234593513490736,0.35994829215360186,0.18577634364882234
2.54,-2.0536760221135184,-0.7708760470261764,0.8683813580697971,-0.7559526543994054,-1.5970805140507722,-0.6085273571482205,-0.1709665047729731,-0.46157452165548135,0.09358240941894874,0.07806587553369213,0.3324895996308588,0.18629205836206447
2.5500000000000003,-2.069642398738712,-0.7769573227784118,0.8666878672571977,-0.7605590762965442,-1.596219622548766,-0.6077183676027734,-0.16777643664351222,-0.4597089821474881,0.07869537501423332,0.08372129642119673,0.30562218401098434,0.186817428456174
2.56,-2.08560090087666,-0.7830302269370556,0.8650249435514662,-0.7651468163727768,-1.595504626653688,-0.6068531456401391,-0.16485210570577924,-0.45783814186217814,0.06440230964920779,0.08931239120586981,0.27934138448340806,0.18735216580420447
2.57,-2.101552957882822,-0.7890942003910185,0.8633899588338112,-0.7697158211567698,-1.5949296160266697,-0.6059323335543039,-0.16218766910290533,-0.45596190856764746,0.05069734301775237,0.0948393532961627,0.25364254023754695,0.18789598227920495
2.58,-2.117499940302778,-0.7951486904424789,0.8617803431809669,-0.7742660362692767,-1.5944887390319078,-0.6049565717051691,-0.15977733058612492,-0.45408019291326074,0.03757460481373479,0.10030237610051873,0.22852099046283406,0.18844858975422188
2.59,-2.1334431604592683,-0.801193150787545,0.8601935843991161,-0.7787974064519507,-1.5941762027366588,-0.6039264985185521,-0.15761534051477974,-0.4521929084296531,0.02502822473103348,0.10570165302738387,0.20397207434869183,0.18900970010230256
2.6,-2.149383873039221,-0.8072270414969122,0.8586272275578072,-0.7833098755961585,-1.5939862729112362,-0.6028427504861849,-0.15569599585631794,-0.45029997152872786,0.013052332463519778,0.11103737748520766,0.17999113108454798,0.18957902519649789
2.61,-2.1653232756807803,-0.8132498289965228,0.8570788745238733,-0.7878033867717911,-1.593913274029022,-0.6017059621657163,-0.1540136401862911,-0.4484013015036588,0.0016410577050755826,0.11630974288243431,0.15657349985982313,0.19015627690985512
2.62,-2.181262509560343,-0.8192609860482258,0.8555461834953529,-0.7922778822560789,-1.5939515892664577,-0.6005167661807099,-0.15256266368835839,-0.4464968205288898,-0.009211469850415266,0.12151894262751248,0.13371451986394722,0.1907411671154225
2.63,-2.1972026599795837,-0.8252599917304348,0.8540268685354057,-0.7967333035624021,-1.5940956605030423,-0.5992757932206452,-0.15133750315428457,-0.44458645366013333,-0.01951112050909573,0.12666517012888726,0.11140953028634533,0.19133340768624557
2.64,-2.213144756952487,-0.831246331418788,0.8525186991062337,-0.8011695914691046,-1.5943399883213378,-0.5979836720409166,-0.15033264198393903,-0.44267012883437096,-0.02926376457707136,0.13174861879500818,0.08965387031644251,0.19193271049537697
2.65,-2.229089775792379,-0.8372194967668068,0.8510194996030002,-0.8055866860483066,-1.5946791320069686,-0.5966410294628347,-0.14954261018529869,-0.4407477768698547,-0.03847527236047621,0.13676948203432038,0.06844287914366293,0.19253878741586175
2.66,-2.2450386376989555,-0.8431789856865552,0.8495271488877468,-0.8099845266947169,-1.5951077095486181,-0.5952484903736245,-0.1489619843744441,-0.43881933146610536,-0.04715151416542837,0.14172795325527154,0.047771895957432114,0.19315135032075215
2.67,-2.2609922103453197,-0.8491243023293005,0.8480395798233163,-0.8143630521544469,-1.5956203976380356,-0.5938066777264288,-0.14858538777556346,-0.43688472920391486,-0.05529836029805635,0.14662422586630774,0.02763625994717733,0.19377011108309236
2.68,-2.2769513084650024,-0.8550549570661689,0.8465547788072669,-0.8187222005538204,-1.5962119316700263,-0.5923162125403036,-0.14840749022094937,-0.4349439095453421,-0.06292168106448198,0.15145849327587846,0.008031310302322325,0.19439478157593323
2.69,-2.292916694438999,-0.8609704664688081,0.8450707853057939,-0.82306190942819,-1.5968771057424587,-0.5907777139002212,-0.148423008151001,-0.4329968148337176,-0.07002734677082839,0.15623094889242434,-0.011047613787705628,0.1950250736723208
2.7,-2.3088890788828,-0.8668703532900447,0.8435856913876487,-0.8273821157507466,-1.5976107726562634,-0.5891917989570706,-0.14862670461422262,-0.43104339029364064,-0.07662122772322066,0.1609417861243999,-0.0296051731334828,0.1956606992453059
2.71,-2.324869121233418,-0.872754146444543,0.8420976412580555,-0.8316827559613336,-1.5984078439154294,-0.5875590829276537,-0.14901338926722507,-0.42908358403097924,-0.08270919422777895,0.16559119838024705,-0.04764602854558456,0.19630137016793536
2.72,-2.3408574303364253,-0.8786213809894668,0.8406048307926343,-0.8359637659952607,-1.599263289727013,-0.5858801790946911,-0.1495779183747239,-0.4271173470328731,-0.08829711659062811,0.17017937906841576,-0.06517484083458229,0.1969467983132579
2.73,-2.3568545650329775,-0.8844715981051352,0.8391055070713156,-0.840225081312114,-1.6001721390011245,-0.5841556988068166,-0.15031519480954147,-0.4251446331677286,-0.09339086511789696,0.17470652159735073,-0.08219627081105316,0.19759669555432163
2.74,-2.3728610347468444,-0.8903043450756836,0.8375979679122616,-0.8444666369245707,-1.6011294793509396,-0.5823862514785801,-0.15122016805260508,-0.42316539918522394,-0.09799631011570697,0.17917281937549792,-0.09871497928556944,0.19825077376417438
2.75,-2.3888773000714463,-0.8961191752697221,0.8360805614057849,-0.8486883674272105,-1.602130457092694,-0.580572444590448,-0.15228783419294822,-0.4211796047163057,-0.10211932189017792,0.18357846581130782,-0.11473562706870784,0.19890874481586615
2.7600000000000002,-2.404903773356879,-0.9019156481209952,0.8345516854482664,-0.8528902070253289,-1.6031702772456848,-0.5787148836888002,-0.15351323592770988,-0.4191872122731904,-0.10576577074743426,0.18792365431322408,-0.13026287497104286,0.19957032058244373
2.77,-2.420940819296948,-0.9076933291090418,0.8330097872760769,-0.8570720895637512,-1.6042442035322717,-0.5768141723859348,-0.15489146256213482,-0.4171881872493638,-0.1089415269936036,0.19220857828969498,-0.14530138380314675,0.20023521293695537
2.7800000000000002,-2.436988755516198,-0.9134517897398521,0.8314533629994925,-0.8612339485556427,-1.605347558377874,-0.5748709123600633,-0.15641765000957386,-0.41518249791958156,-0.11165246093480846,0.1964334311491683,-0.15985581437559623,0.20090313375245059
2.79,-2.4530478531569413,-0.9191906075265284,0.8298809571366161,-0.865375717211323,-1.6064757229109716,-0.5728857033553133,-0.1580869807914833,-0.41317011543986815,-0.1139044428771715,0.20059840630008863,-0.1739308274989649,0.2015737949019758
2.8000000000000003,-2.4691183374662913,-0.9249093659699437,0.828291162147295,-0.869497328467078,-1.6076241369631088,-0.5708591431817287,-0.15989468403742488,-0.4111510138475184,-0.11570334312681751,0.20470369715090467,-0.18753108398382728,0.20224690825858146
2.81,-2.4852003883831912,-0.9306076545394009,0.8266826179670405,-0.8735987150139725,-1.608788299068886,-0.5687918277152674,-0.16183603548506656,-0.40912517006109617,-0.11705503198986833,0.2087494971100624,-0.20066124464075785,0.2029221856953135
2.82,-2.5012941411254497,-0.9362850686532934,0.8250540115409472,-0.877679809326665,-1.6099637664659705,-0.5666843508978046,-0.1639063574801819,-0.40709256388043474,-0.11796537977245147,0.21273599958600917,-0.2133259702803311,0.20359933908522287
2.83,-2.517399686776762,-0.9419412096597612,0.8234040763576111,-0.8817405436922172,-1.6111461550950874,-0.56453730473713,-0.16610101897665047,-0.4050531779866377,-0.11844025678068426,0.2166633979871918,-0.22552992171312242,0.20427808030135594
2.84,-2.533517072873748,-0.9475756848173527,0.8217315919830488,-0.8857808502389086,-1.612331139600024,-0.562351279306949,-0.16841543553645696,-0.403006997942077,-0.11848553332069511,0.22053188572205795,-0.23727775974970625,0.20495812121676257
2.85,-2.549646303992982,-0.9531881072756822,0.8200353835946163,-0.8898006609650483,-1.6135144533276278,-0.560126862746882,-0.1708450693296925,-0.40095401219039495,-0.11810707969861,0.22434165619905289,-0.24857414520065535,0.2056391737044887
2.86,-2.5657873423380178,-0.95877809605609,0.8183143215149279,-0.8937999077677883,-1.614691888327809,-0.5578646412624657,-0.17338542913455302,-0.39889421205650266,-0.11731076622054859,0.22809290282662426,-0.2594237388765458,0.20632094963758416
2.87,-2.5819401083264317,-0.9643452760323027,0.8165673207457771,-0.8977785224719378,-1.6158592953535384,-0.5555651991251526,-0.17603207033734156,-0.39682759174658183,-0.11610246319263196,0.2317858190132199,-0.2698312015879527,0.20700316088909856
2.88,-2.5981044811768386,-0.9698892779110895,0.8147933405020522,-0.9017364368587714,-1.6170125838608493,-0.55322911867231,-0.1787805949324657,-0.3947541483480827,-0.11448804092099196,0.23542059816728567,-0.279801194145449,0.2076855193320776
2.89,-2.6142802994959293,-0.9754097382129231,0.8129913837456574,-0.9056735826948465,-1.6181477220088336,-0.5508569803072207,-0.18162665152243937,-0.39267388182972535,-0.1124733697117477,0.23899743369726767,-0.28933837735960966,0.20836773683957127
2.9,-2.6304673618655023,-0.9809062992526386,0.8111604967194308,-0.909589891760813,-1.6192607366596463,-0.5484493624990836,-0.184565935317882,-0.3905867950414995,-0.11006431987102094,0.24251651901161436,-0.29844741204101005,0.20904952528462742
2.91,-2.6466654274294914,-0.9863786091200926,0.8092997684810642,-0.9134852958802269,-1.6203477133785018,-0.5460068417830123,-0.18759418813751888,-0.388492893714664,-0.10726676170493854,0.24597804751877284,-0.30713295900022397,0.20973059654029402
2.92,-2.662874216481002,-0.9918263216608236,0.8074083304370223,-0.9173597269483653,-1.6214047964336804,-0.5435299927600371,-0.1907071984081809,-0.38639218646174806,-0.10408656551962359,0.24938221262718824,-0.31539967904782573,0.21041066247962004
2.93,-2.679093411049334,-0.9972490964567083,0.8054853558764595,-0.9212131169610343,-1.6224281887965184,-0.5410193880971033,-0.19390080116480493,-0.38428468477654953,-0.10052960162119784,0.2527292077453097,-0.3232522329943911,0.21108943497565386
2.94,-2.6953226554870167,-1.0026465988066233,0.8035300595051417,-0.9250453980433854,-1.6234141521414147,-0.5384755985270707,-0.1971708780504337,-0.382170403034136,-0.09660174031579016,0.2560192262815819,-0.3306952816504929,0.21176662590144235
2.95,-2.711561557056839,-1.0080184997071036,0.8015416969793628,-0.9288565024787274,-1.6243590068458316,-0.5358991928487165,-0.2005133573162151,-0.38004935849084487,-0.09230885190951676,0.25925246164445354,-0.33773348582670726,0.21244194713003645
2.96,-2.7278096865188757,-1.013364475833,0.7995195644398646,-0.9326463627373375,-1.6252591319902887,-0.5332907379267315,-0.2039242138214033,-0.3779215712842824,-0.08765680670851017,0.2624291072423688,-0.3443715063336066,0.2131151105344804
2.97,-2.744066578717532,-1.0186842095181423,0.7974629980457573,-0.9364149115052776,-1.626110965358372,-0.5306507986917238,-0.20739946903335804,-0.37578706443332544,-0.08265147501888559,0.2655493564837782,-0.35061400398176795,0.21378582798782714
2.98,-2.760331733168555,-1.0239773887359944,0.7953713735084356,-0.940162081713203,-1.6269110034367253,-0.5279799381402163,-0.21093519102754463,-0.3736458638381196,-0.077298727146774,0.26861340277712586,-0.3564656395817643,0.21445381136312125
2.99,-2.776604614646077,-1.0292437070803149,0.7932441056254992,-0.9438878065651771,-1.6276558014150535,-0.525278717334647,-0.2145274944875346,-0.37149799828007984,-0.07160443339829348,0.2716214395308606,-0.3619310739441708,0.21511877253341377
3.0,-2.792884653769643,-1.0344828637458168,0.7910806478146721,-0.9475920195674842,-1.628341973186124,-0.5225476954033701,-0.21817254070500455,-0.3693434994218913,-0.0655744640795719,0.2745736601534279,-0.36701496787956134,0.2157804233717509
3.0100000000000002,-2.8091712475912374,-1.039694563508825,0.7888804916477201,-0.9512746545574403,-1.628966191345764,-0.5197874295406542,-0.22186653757973734,-0.3671824018075079,-0.059214689496728035,0.2774702580532756,-0.37172198219851116,0.21643847575118264
3.02,-2.825463760182325,-1.0448785167079397,0.7866431663843722,-0.9549356457322105,-1.6295251871928649,-0.5169984750066854,-0.2256057396196217,-0.36501474286215385,-0.05253097995589151,0.28031142663884934,-0.376056777711594,0.21709264154475577
3.0300000000000002,-2.84176152322087,-1.0500344392246899,0.7843682385062362,-0.9585749276776151,-1.6300157507293758,-0.5141813851275634,-0.22938644794065163,-0.36284056289232225,-0.045529205763183755,0.283097359318598,-0.3800240152293854,0.2177426326255198
3.04,-2.8580638365783715,-1.0551620524641954,0.7820553112507205,-0.9621924353969479,-1.6304347306603093,-0.5113367112953048,-0.23320501026692697,-0.36065990508577606,-0.03821523722472775,0.2858282495009662,-0.3836283555624588,0.2183881608665218
3.0500000000000003,-2.8743699689068953,-1.0602610833358268,0.7797040241449518,-0.965788104339785,-1.6307790343937387,-0.5084650029678408,-0.23705782093065342,-0.35847281551154775,-0.030594944646646693,0.288504290594403,-0.3868744595213899,0.2190289381408117
3.06,-2.8906791582261007,-1.0653312642338622,0.7773140525396933,-0.9693618704308001,-1.6310456280407968,-0.5055668076690183,-0.2409413208721426,-0.35627934311993864,-0.022674198335065787,0.2911256760073535,-0.3897669879167521,0.21966467632143677
3.0700000000000003,-2.9069906125102793,-1.0703723330181496,0.7748851071432669,-0.9729136700985771,-1.6312315364156813,-0.5026426709886005,-0.2448519976398116,-0.35407953974252104,-0.014458868596107122,0.2936925991482663,-0.3923106015591207,0.22029508728144548
3.08,-2.9233035102753755,-1.0753840329947624,0.772416933555467,-0.9764434403044205,-1.6313338430356488,-0.4996931365822653,-0.24878638539018338,-0.35187346009213527,-0.005954825735896785,0.2962052534255867,-0.3945099612590699,0.22091988289388587
3.09,-2.9396170011660216,-1.0803661128966622,0.7699093118014844,-0.9799511185711702,-1.631349690121016,-0.49671874617160633,-0.2527410648878868,-0.34966116176289186,0.002832059939442466,0.2986638322477617,-0.39636972782717417,0.22153877503180663
3.1,-2.955930206542569,-1.0853183268643538,0.7673620558658215,-0.9834366430120135,-1.6312762785951636,-0.4937200395441325,-0.25671266350565586,-0.3474427052301709,0.011895918123787874,0.30106852902323966,-0.39789456207400825,0.2221514755682567
3.11,-2.972242220068118,-1.0902404344265475,0.7647750132262134,-0.986899952359297,-1.63111086808453,-0.49069755455326886,-0.26069785522433103,-0.34521815385062143,0.021230878511014017,0.30341953716046577,-0.3990891248101461,0.2227576963762825
3.12,-2.9885521082955515,-1.0951322004808197,0.7621480643875472,-0.9903409859933422,-1.6308507769186198,-0.48765182711835586,-0.2646933606328581,-0.3429875738621631,0.03083107079499947,0.30571705006788863,-0.3999580768461634,0.22335714932893386
3.13,-3.004858911254559,-1.0999933952742673,0.7594811224157789,-0.9937596839712544,-1.6304933821299952,-0.4845833912246491,-0.2686959469282891,-0.340751034383984,0.04069062466961837,0.3079612611539536,-0.4005060789926338,0.22394954629925878
3.14,-3.0211616430386714,-1.1048237943841688,0.7567741324718535,-0.9971559870557374,-1.6300361194542794,-0.48149277892332,-0.27270242791578075,-0.3385086074165424,0.05080366982874751,0.31015236382710853,-0.400737792060132,0.2245345991603055
3.15,-3.037459292392293,-1.1096231786986466,0.7540270713456245,-1.0005298367439068,-1.6294764833301592,-0.4783805203314554,-0.27670966400859687,-0.33626036784156554,0.061164335966263694,0.31229055149579976,-0.4006578768592323,0.22511201978512252
3.16,-3.0537508232977277,-1.1143913343973206,0.7512399469897711,-1.0038811752960997,-1.62881202689938,-0.47524714363205744,-0.28071456222810576,-0.3340063934220505,0.07176675277604216,0.31437601756847433,-0.4002709942005094,0.22568152004675723
3.17,-3.0700351755622175,-1.1191280529319736,0.7484127980537204,-1.007209945764693,-1.628040362006751,-0.47209317507404447,-0.2847140762037827,-0.33174676480226417,0.08260504995196127,0.3164089554535797,-0.39958180489453865,0.22624281181825945
3.18,-3.0863112654049605,-1.1238331310072036,0.7455456934175619,-1.010516092022909,-1.6271591592001406,-0.4689191389722498,-0.2887052061732075,-0.32948156550774244,0.09367335718789516,0.31838955855956197,-0.398594969751893,0.2267956069726763
3.19,-3.102577986044154,-1.1285063705610898,0.7426387317259704,-1.0137995587936344,-1.6261661477304803,-0.4657255577074223,-0.2926849989820667,-0.3272108819452909,0.10496580417772083,0.3203180202948681,-0.39731514958314823,0.2273396173830564
3.2,-3.1188342082840177,-1.133147578745846,0.7396920409221224,-1.017060291678229,-1.6250591155517609,-0.46251295172622686,-0.296650548084152,-0.32493480340298475,0.11647652061531266,0.32219453406794574,-0.3957470051988784,0.22787455492244835
3.21,-3.135078781101825,-1.137756567908483,0.7367057777816155,-1.0202982371853386,-1.6238359093210346,-0.4592818395412428,-0.3005989935413609,-0.3226534220501684,0.12819963619455255,0.3240192932872412,-0.3938951974096583,0.22840013146390026
3.22,-3.151310532234942,-1.1423331555714678,0.73368012744639,-1.0235133427597123,-1.6224944343984178,-0.4560327377309665,-0.304527522023697,-0.3203668329374564,0.14012928060930996,0.3257924913612017,-0.39176438702606187,0.2289160588804603
3.23,-3.167528268767842,-1.146877164413381,0.7306153029586431,-1.0267055568110077,-1.6210326548470846,-0.4527661609398087,-0.30843336680926936,-0.31807513399673226,0.15225958355346503,0.3275143216982732,-0.3893592348586642,0.2294220490451765
3.24,-3.183730777719151,-1.1513884222495767,0.7275115447947519,-1.0298748287426103,-1.6194485934332712,-0.44948262187809596,-0.3123138077842927,-0.31577842604114903,0.16458467472089344,0.3291849777069037,-0.38668440171803925,0.2299178138310981
3.25,-3.1999168266286744,-1.1558667620128433,0.7243691203991903,-1.0330211089804426,-1.6177403316262766,-0.44618263132207076,-0.31616617144308784,-0.31347681276512956,0.17709868380547,0.3308046527955397,-0.38374454841476247,0.2304030651112723
3.2600000000000002,-3.216085164144417,-1.1603120217340588,0.721188323718448,-1.0361443490017763,-1.6159060095984583,-0.44286669811389034,-0.31998783088808086,-0.31117040074436586,0.18979574050107217,0.3323735403726279,-0.3805443357594073,0.23087751475874818
3.27,-3.2322345206096346,-1.1647240445228555,0.7179694747349515,-1.03924450136405,-1.6139438262252384,-0.4395353291616285,-0.32377620582980415,-0.30885929943582,0.20266997450157742,0.3338918338466157,-0.37708842456254954,0.23134087464657405
3.2800000000000002,-3.2483636086498433,-1.1691026785482728,0.7147129190009798,-1.0423215197336744,-1.6118520390850972,-0.4361890294392738,-0.32752876258689534,-0.3065436211777232,0.21571551550086054,0.3353597266259497,-0.37338147563476265,0.23179285664779792
3.29,-3.264471123759862,-1.1734477770194216,0.7114190271725853,-1.0453753589148507,-1.609628964459579,-0.4328283019867304,-0.3312430140860979,-0.30422348118957615,0.22892649319279768,0.33677741211907675,-0.3694281497866214,0.23223317263546805
3.3000000000000003,-3.280555744890843,-1.177759198166141,0.7080881945435135,-1.0484059748783816,-1.6072729773332868,-0.42945364790981827,-0.3349165198622617,-0.301898997572149,0.24229703727126406,0.3381450837344432,-0.36523310782870033,0.2326615344826326
3.31,-3.2966161350372936,-1.182036805219657,0.7047208405791191,-1.0514133247904822,-1.6047825113938852,-0.4260655663802726,-0.3385468860583411,-0.2995702913074817,0.2558212774301398,0.33946293488049717,-0.3608010105715741,0.2330776540623405
3.3200000000000003,-3.3126509418241215,-1.1862804663932442,0.7013174084502888,-1.0543973670415976,-1.6021560590321027,-0.4226645546357447,-0.3421317654253975,-0.2972374862588836,0.26949334336329667,0.3407311589656846,-0.3561365188258173,0.23348124324763952
3.33,-3.328658798093651,-1.190490054862882,0.6978783645673563,-1.057358061275209,-1.599392171341726,-0.41925110797980064,-0.3456688573225971,-0.29490070917093364,0.2833073647646134,0.3419499493984527,-0.35124429340200425,0.23387201391157775
3.34,-3.344638322492661,-1.1946654487479154,0.6944041981140243,-1.0602953684166512,-1.5964894581196043,-0.41582571978192245,-0.3491559077172125,-0.29256008966947994,0.2972574713279652,0.34311949958724886,-0.34612899511070955,0.2342496779272044
3.35,-3.3605881200594143,-1.1988065310917138,0.6908954205812818,-1.0632092507019237,-1.5934465878656479,-0.41238888147750774,-0.35259070918462154,-0.29021576026164064,0.31133779274723006,0.34424000294051893,-0.3407952847625081,0.23461394716756712
3.36,-3.376506782810686,-1.202913189842329,0.6873525653013229,-1.0660996717065032,-1.5902622877828265,-0.408941082567869,-0.355971100908308,-0.2878678563358026,0.32554245871628096,0.34531165286671006,-0.3352478231679733,0.234964533505714
3.37,-3.3923928903288045,-1.2069853178331589,0.6837761869814679,-1.0689665963741581,-1.586935343777176,-0.4054828106202356,-0.3592949686798617,-0.28551651616162355,0.3398655989289985,0.3463346427742702,-0.3294912711376813,0.23530114881469433
3.38,-3.408245010348662,-1.2110228127635996,0.6801668612380795,-1.0718099910457577,-1.583464600457789,-0.4020145512677512,-0.36256024489897754,-0.28316188089002936,0.3543013430792552,0.3473091660716452,-0.32353028948220525,0.23562350496755524
3.39,-3.4240616993447652,-1.2150255771797094,0.6765251841304828,-1.074629823488088,-1.5798489611368198,-0.3985367882094753,-0.3657649085734569,-0.28080409455321603,0.36884382086092815,0.3482354161672815,-0.3173695390121203,0.23593131383734534
3.4,-3.439841503118255,-1.218993518454868,0.6728517716948852,-1.077426062922663,-1.5760873878294865,-0.39505000321038347,-0.3689069853192064,-0.2784433040646494,0.3834871619678948,0.3491135864696273,-0.31101368053800105,0.23622428729711353
3.41,-3.4555829573839363,-1.2229265487704315,0.669147259478293,-1.0801986800545367,-1.5721789012540646,-0.39155467610136563,-0.37198454736023856,-0.27607965921906374,0.39822549609403346,0.34994387038712926,-0.3044673748704218,0.23650213721990798
3.42,-3.471284588357323,-1.2268245850963992,0.6654123020724344,-1.0829476471011201,-1.568122580831895,-0.38805128477922873,-0.3749957135286719,-0.27371331269246424,0.4130529529332154,0.35072646132823404,-0.29773528281995737,0.2367645754787766
3.43,-3.486944913341645,-1.2306875491720632,0.6616475726476733,-1.085672937820987,-1.5639175646873775,-0.38454030520669436,-0.37793864926473,-0.2713444200421246,0.4279636621793186,0.351461552701388,-0.2908220651971817,0.23701131394676755
3.44,-3.5025624413148977,-1.2345153674866753,0.657853762486932,-1.0883745275426917,-1.5595630496479729,-0.38102221141239945,-0.38081156661674287,-0.2689731397065884,0.4429517535262226,0.3521493379150391,-0.2837323828126703,0.2372420644969302
3.45,-3.5181356735168667,-1.2383079712601024,0.6540315805196094,-1.091052393193581,-1.5550582912442046,-0.37749747549089724,-0.3836127242411461,-0.2665996330056687,0.4580113566677997,0.35279001037763336,-0.2764708964769965,0.23745653900231134
3.46,-3.533663104036155,-1.242065296423485,0.6501817528554981,-1.0937065133286037,-1.5504026037096552,-0.3739665676026556,-0.38634042740248054,-0.2642240641404481,0.47313660129792545,0.3533837634976169,-0.2690422670007352,0.23765444933595992
3.47,-3.549143220397222,-1.245787283599902,0.6463050223187066,-1.0963368681591295,-1.5455953599809713,-0.3704299559740588,-0.38899302797339397,-0.26184660019327854,0.4883216171104796,0.3539307906834388,-0.2614511551944616,0.23783550737092474
3.48,-3.564574504147404,-1.2494738780850212,0.6424021479815748,-1.098943439581755,-1.5406359916978585,-0.36688810689740614,-0.39156892443463837,-0.2594674111277818,0.5035605337993374,0.3544312853435443,-0.25370222186874974,0.23799942498025362
3.49,-3.5799554314439503,-1.2531250298277654,0.6384739046985953,-1.10152621120712,-1.5355239892030843,-0.3633414847309125,-0.3940665618750725,-0.257086669788849,0.518847481058375,0.3548854408863815,-0.24580012783417432,0.2381459140369956
3.5,-3.5952844736410574,-1.256740693410969,0.6345210826403319,-1.104085168388721,-1.5302589015424781,-0.3597905518987081,-0.3964844319916609,-0.2547045519026405,0.5341765885814662,0.3552934507203953,-0.2377495339013092,0.23827468641419713
3.5100000000000002,-3.610560097876886,-1.260320828032035,0.6305444868273367,-1.1066202982517195,-1.5248403364649283,-0.3562357688908392,-0.3988210730894728,-0.25232123607658674,0.5495419860624922,0.35565550825403514,-0.2295551008807298,0.2383854539849085
3.52,-3.6257807676606153,-1.2638653974836012,0.626544936664073,-1.1091315897217617,-1.5192679604223889,-0.35267759426326734,-0.40107507008168475,-0.24993690379938732,0.5649378031953245,0.35597180689574626,-0.2212214895830103,0.23847792862217698
3.5300000000000002,-3.640944943459445,-1.2673743701341895,0.6225232654728297,-1.1116190335537834,-1.5135414985698703,-0.34911648463786954,-0.4032450544895778,-0.24755173944101128,0.5803581696738407,0.3562425400539757,-0.212753360818725,0.23855182219905102
3.54,-3.656051083285649,-1.2708477189088732,0.6184803200276434,-1.1140826223608284,-1.507660734765447,-0.3455528947024381,-0.40532970444253924,-0.24516593025269753,0.5957972151919195,0.3564679011371703,-0.2041553753984484,0.23860684658857922
3.5500000000000003,-3.6710976432835967,-1.2742854212699322,0.6144169600882161,-1.1165223506428594,-1.501625511570254,-0.34198727721068145,-0.4073277446780621,-0.24277966636695406,0.6112490694434349,0.3566480835537782,-0.1954321941327559,0.23864271366381007
3.56,-3.6860830783167753,-1.2776874591975123,0.6103340579338337,-1.1189382148155682,-1.4954357302484873,-0.338420082982223,-0.4092379465417447,-0.24039314079755889,0.6267078621222621,0.35678328071224463,-0.1865884778322209,0.2386591352977907
3.5700000000000003,-3.701005842554844,-1.2810538191702872,0.606232497897287,-1.1213302132391947,-1.489091350767405,-0.3348517609026025,-0.4110591279872921,-0.23800654943955907,0.6421677229222791,0.3568736860210173,-0.1776288873074184,0.23865582336357083
3.58,-3.7158643900606374,-1.2843844921461136,0.6021131758987879,-1.1236983462473318,-1.4825923917973252,-0.3312827579232737,-0.4127901535765141,-0.2356200910692714,0.6576227815373641,0.35691949288854374,-0.1685580833689233,0.23863248973419848
3.59,-3.7306571753772153,-1.2876794735426929,0.5979769989798903,-1.1260426161757442,-1.475938930711628,-0.32771351906160767,-0.4144299344793267,-0.2332339673442823,0.6730671676613893,0.3569208947232696,-0.15938072682730955,0.23858884628272092
3.6,-3.7453826541148847,-1.2909387632182308,0.5938248848374085,-1.128363027391178,-1.4691311035867554,-0.3241444874008897,-0.41597742847375196,-0.23084838280344727,0.6884950109882348,0.35687808493364304,-0.15010147849315245,0.23852460488218785
3.61,-3.7600392835382266,-1.2941623654520924,0.5896577613573349,-1.1306595863201736,-1.4621691052022077,-0.32057610409032117,-0.41743163994591653,-0.22846354486689185,0.7039004412117711,0.35679125692810887,-0.14072499917702494,0.23843947740564608
3.62,-3.774625523153148,-1.297350288925469,0.5854765661487621,-1.132932301477881,-1.4550531890405516,-0.31700880834501927,-0.41879161989005415,-0.22607966383601102,0.7192775880258813,0.3566606041151166,-0.13125594968950327,0.23833317572614554
3.63,-3.789139835293877,-1.3005025467020288,0.5812822460777984,-1.1351811834968681,-1.4477836672874094,-0.3134430374460157,-0.4200564659085038,-0.22369695289346875,0.7346205811244357,0.3564863199031112,-0.1216989908411614,0.23820541171673337
3.64,-3.8035806857100294,-1.3036191562085815,0.5770757568014885,-1.1374062451559375,-1.4403609108314686,-0.3098792267402591,-0.42122532221170994,-0.2213156281031992,0.7499235502013168,0.3562685977005404,-0.11205878344257322,0.23805589725045828
3.65,-3.8179465441536147,-1.306700139215736,0.5728580623017321,-1.139607501408937,-1.4327853492644764,-0.30631780964061217,-0.42229737961822295,-0.21893590841040572,0.765180624950395,0.3560076309158513,-0.10233998830431432,0.2378843442003683
3.66,-3.832235884966074,-1.3097455218185579,0.5686301344192027,-1.1417849694135718,-1.4250574708812398,-0.3027592176258541,-0.42327187555469903,-0.21655801564156113,0.7803859350655489,0.35570361295749,-0.09254726623695805,0.23769046443951192
3.67,-3.8464471876653206,-1.312755334417233,0.5643929523872679,-1.1439386685602202,-1.417177822679632,-0.2992038802406799,-0.42414809405590037,-0.21418217450440796,0.7955336102406569,0.35535673723390393,-0.08268527805108,0.23747396984093827
3.68,-3.8605789375327535,-1.3157296116977206,0.5601475023659052,-1.1460686205007422,-1.4091470103605817,-0.29565222509569905,-0.42492536576469436,-0.21180861258795813,0.8106177801695917,0.35496719715353975,-0.07275868455725415,0.23723457227769407
3.69,-3.874629626200298,-1.3186683926124174,0.5558947769756243,-1.1481748491772956,-1.4009656983280814,-0.29210467786743705,-0.4256030679320541,-0.209437560362493,0.8256325745462316,0.35453518612484447,-0.06277214656605534,0.23697198362282879
3.7,-3.888597752237438,-1.321571720360815,0.5516357748313842,-1.1502573808511474,-1.392634609689186,-0.2885616622983353,-0.42618062441705945,-0.2070692511795636,0.8405721230644518,0.35406089755626535,-0.052730324888057595,0.23668591574939002
3.71,-3.9024818217382364,-1.3244396423701568,0.5473715000765123,-1.1523162441314843,-1.3841545262540076,-0.28502360019674994,-0.4266575056868945,-0.20470392127199033,0.855430555418129,0.35354452485624854,-0.042637880333835865,0.2363760805304267
3.72,-3.916280348908384,-1.3272722102761039,0.5431029619166247,-1.1543514700042317,-1.3755262885357256,-0.2814909114369539,-0.4270332288168505,-0.20234180975386346,0.8702020013011409,0.3529862614332422,-0.03249947371396514,0.23604218983898728
3.73,-3.9299918566522063,-1.3300694799033848,0.5388311741535428,-1.1563630918608578,-1.3667507957505753,-0.2779640139591339,-0.42730735749032356,-0.19998315862054217,0.8848805904073607,0.3523863006956911,-0.022319765839018596,0.23568395554811872
3.74,-3.9436148771597135,-1.3328315112464615,0.5345571547192138,-1.1583511455271935,-1.357829005817855,-0.2744433237693937,-0.42747950199881585,-0.19762821274865572,0.899460452430668,0.35174483605204476,-0.012103417519572002,0.23530108953087137
3.75,-3.9571479524936235,-1.3355583684501877,0.5302819252096299,-1.1603156692922418,-1.3487619353599258,-0.27092925493975206,-0.4275493192419354,-0.19527721989610275,0.9139357170649363,0.3510620609107473,-0.0018550895661988143,0.23489330366029137
3.7600000000000002,-3.970589635176389,-1.3382501197904646,0.526006510418746,-1.1622567039369902,-1.339550659702207,-0.2674222196081428,-0.4275165127273955,-0.19293043070205085,0.9283005140040443,0.35033816868024803,0.008420557210525342,0.23446030980942867
3.77,-3.9839384887772398,-1.3409068376549047,0.5217319378724001,-1.1641742927632257,-1.3301963128731824,-0.2639226279784162,-0.42738083257101567,-0.19058809868693816,0.9425489729418652,0.3495733527689924,0.018718862000026593,0.23400181985133028
3.7800000000000002,-3.997193088499197,-1.3435285985234866,0.5174592373622309,-1.1660684816223443,-1.3207000876043948,-0.26043088832033756,-0.4271420754967209,-0.18825048025247154,0.9566752235722782,0.3487678065854283,0.02903516399172984,0.23351754565904614
3.79,-4.01035202176612,-1.3461154829492172,0.5131894404795976,-1.167939318944167,-1.3110632353304497,-0.2569474069695876,-0.4268000848365422,-0.18591783468162804,0.970673395589158,0.34792172353800144,0.039364802375061486,0.23300719910562306
3.8000000000000003,-4.023413888809724,-1.3486675755387894,0.5089235801494981,-1.1697868557657494,-1.3012870661890115,-0.2534725883277624,-0.4263547505306161,-0.183590424138653,0.9845376186863808,0.34703529703515956,0.04970311633944599,0.23247049206410986
3.81,-4.0363773032566215,-1.3511849649332421,0.5046626901644891,-1.1716111457601976,-1.2913729490208083,-0.2500068348623744,-0.425806009127185,-0.1812685136690626,0.9982620225578231,0.34610872048534924,0.06004544507431003,0.23190713640755534
3.8200000000000003,-4.049240892715342,-1.3536677437886182,0.5004078047186038,-1.1734122452654778,-1.2813223113696286,-0.24655054710685054,-0.42515384378259696,-0.17895237119964202,1.0118407368973625,0.34514218729701795,0.07038712776907777,0.23131684400900665
3.83,-4.06200329936337,-1.3561160087566249,0.49615995794127166,-1.175190213313231,-1.2711366394823214,-0.24310412366053447,-0.42439828426130566,-0.1766422675384457,1.0252678913988733,0.34413589087861207,0.08072350361317526,0.2306993267415135
3.84,-4.074663180534177,-1.3585298604652918,0.491920183431237,-1.176945111657585,-1.2608174783087986,-0.23966796118868394,-0.4235394069358709,-0.17433847637479816,1.0385376157562325,0.3430900246385782,0.09104991179602814,0.2300542964781228
3.85,-4.087219209304245,-1.3609094034996319,0.48768951379047804,-1.1786770048039672,-1.2503664315020315,-0.2362424544224736,-0.4225773347869579,-0.17204127427929283,1.0516440396633167,0.342004781985364,0.10136169150706167,0.22938146509188395
3.86,-4.099670075080104,-1.3632547463822986,0.4834689801581257,-1.1803859600379174,-1.239785161418054,-0.23282799615899263,-0.4215122374033377,-0.16975094070379326,1.0645812928140028,0.3408803563274161,0.11165418193570162,0.2286805444558455
3.87,-4.112014484185357,-1.3655660015542457,0.4792596117443829,-1.1820720474539,-1.2290753891159607,-0.22942497726124644,-0.4203443309818872,-0.16746775798143188,1.0773435049021636,0.3397169410731802,0.12192272227137305,0.22795124644305387
3.88,-4.124251160447715,-1.3678432853553872,0.4750624353644431,-1.1837353399841177,-1.2182388943579063,-0.2260337866581552,-0.4190738783275888,-0.1651920113266112,1.08992480562168,0.3385147296311055,0.13216265170350117,0.2271932829265596
3.89,-4.136378845786022,-1.3700867180052552,0.4708784749724092,-1.1853759134273227,-1.2072775156091096,-0.22265481134455556,-0.4177011888535309,-0.16292398883500303,1.1023193246664245,0.33727391540963647,0.1423693094215126,0.2264063657794091
3.9,-4.148396300797298,-1.3722964235836603,0.46670875119521316,-1.1869938464776313,-1.196193150037848,-0.2192884363811991,-0.41622661858090754,-0.16066398148354855,1.1145211917302769,0.3359946918172223,0.15253803461483156,0.22559020687465237
3.91,-4.160302305343753,-1.3744725300113503,0.46255428086653405,-1.1885892207533348,-1.1849877535154612,-0.2159350448947529,-0.4146505701390185,-0.15841228313045852,1.126524536507112,0.33467725226230827,0.16266416647288456,0.2247445180853367
3.92,-4.172095659139828,-1.3766151690306687,0.4584160765607178,-1.1901621208257132,-1.1736633406163501,-0.2125950180777998,-0.41297349276526957,-0.1561691905152135,1.1383234886908036,0.33332179015334207,0.1727430441850959,0.22386901128451098
3.93,-4.183775182339225,-1.3787244761862145,0.4542951461266954,-1.1917126342478472,-1.1622219846179767,-0.20926873518883848,-0.41119588230517146,-0.15393500325856335,1.1499121779752293,0.3319284988987692,0.1827700069408924,0.22296339834522172
3.94,-4.195339716121936,-1.3808005908055017,0.45019249222190244,-1.193240851583433,-1.1506658175008635,-0.20595657355228192,-0.4093182812123417,-0.1517100238625272,1.1612847340542687,0.3304975719070391,0.19274039392969838,0.22202739114051995
3.95,-4.206788123281269,-1.3828436559796171,0.4461091118461974,-1.1947468664355907,-1.1389970299485968,-0.20265890855846003,-0.40734127854850277,-0.14949455771039422,1.1724352866217926,0.3290292025865962,0.20264954434093996,0.22106070154345203
3.96,-4.21811928881089,-1.3848538185438821,0.4420459958757817,-1.1962307754756822,-1.1272178713478205,-0.19937611366361785,-0.4052655099834833,-0.14728891306672276,1.1833579653716821,0.3275235843458888,0.21249279736404278,0.22006304142706712
3.97,-4.22933212049184,-1.3868312290585085,0.43800412859711746,-1.1976926784721194,-1.115330649788243,-0.1961085603899153,-0.4030916577952176,-0.1450934010773406,1.1940468999978107,0.32598091059336376,0.22226549218843158,0.21903412266441324
3.98,-4.2404255494795775,-1.3887760417892594,0.43398448724084693,-1.19913267831918,-1.1033377320626312,-0.19285661832542833,-0.4008204508697458,-0.14290833576934525,1.2044962201940552,0.324401374737467,0.2319629680035322,0.2179736571285391
3.99,-4.251398530891002,-1.390688414688109,0.4299880415157116,-1.2005508810658185,-1.0912415436668157,-0.18962065512414916,-0.39845266470121343,-0.14073403405110385,1.214700055654291,0.32278517018664643,0.24158056399877018,0.2168813566924923
4.0,-4.262250044391487,-1.392568509373901,0.4260157531424709,-1.20194739594448,-1.0790445687996866,-0.18640103650598405,-0.395989121391872,-0.1385708157122526,1.2246525360723988,0.32113249034934865,0.2511136193635707,0.2157569332293221
4.01,-4.272979094781909,-1.3944164911130068,0.42206857538782105,-1.203322335399911,-1.066749350363195,-0.18319812625675547,-0.3934306896520787,-0.1364190034236975,1.2343477911422496,0.3194435286340205,0.26055747328736023,0.21460009861207563
4.0200000000000005,-4.2835847125856805,-1.3962325287999864,0.41814745259831465,-1.2046758151179753,-1.0543584899623561,-0.1800122862282023,-0.39077828480029675,-0.13427892273761466,1.2437799505577183,0.31771847844910783,0.2699074649595633,0.2134105647138016
4.03,-4.294065954635778,-1.398016794938247,0.41425331973427865,-1.2060079540544628,-1.0418746479052428,-0.17684387633797738,-0.3880328687630946,-0.13215090208744817,1.252943144012689,0.3159575332030601,0.27915893356960536,0.21218804340754926
4.04,-4.304421904661778,-1.3997694656207005,0.41038710190373406,-1.207318874463906,-1.0293005432029916,-0.17369325456965012,-0.3851954500751472,-0.1300352727879135,1.2618315012010304,0.3141608863043214,0.2883072183069122,0.21093224656636522
4.05,-4.314651673876879,-1.401490720510426,0.4065497138963144,-1.2086087019283898,-1.016638953569799,-0.17056077697270533,-0.38226708387923425,-0.12793236903499405,1.2704391518166234,0.31232873116134097,0.2973476583609087,0.20964288606329995
4.0600000000000005,-4.324754401564939,-1.4031807428213254,0.4027420597171852,-1.2098775653863654,-1.0038927154229222,-0.16744679766254256,-0.379248871926242,-0.12584252790594352,1.2787602255533401,0.31046126118256345,0.30627559292102124,0.20831967377139937
4.07,-4.3347292556675034,-1.4048397192987852,0.3989650321209621,-1.211125597161463,-0.991064723882682,-0.16435166882047836,-0.3761419625751623,-0.12376608935928524,1.2867888521050599,0.30855866977643753,0.3150863611766748,0.20696232156371308
4.08,-4.344575433370836,-1.4064678402003343,0.3952195121456306,-1.2123529329913048,-0.9781579327724588,-0.16127574069374362,-0.37294755079309216,-0.12170339623481186,1.2945191611656597,0.3066211503514098,0.32377530231729496,0.2055705413132899
4.09,-4.3542921616929515,-1.4080652992763034,0.39150636864646504,-1.2135597120563169,-0.9651753546186943,-0.1582193615954851,-0.36966687815523513,-0.11965479425358527,1.301945282429016,0.30464889631592673,0.33233775553230716,0.20414404489317772
4.1,-4.36387869807064,-1.4096322937504837,0.3878264578299464,-1.2147460770085414,-0.9521200606508899,-0.15518287790476526,-0.36630123284490007,-0.11762063201793727,1.309061345588999,0.3026421010784348,0.3407690600111368,0.20268254417642373
4.11,-4.373334330946507,-1.4111690243007882,0.3841806227876828,-1.2159121740004524,-0.9389951808016126,-0.15216663406656172,-0.36285194965350176,-0.11560126101146884,1.3158614803394926,0.30060095804738163,0.3490645549432094,0.20118575103607728
4.12,-4.382658380355997,-1.412675695039908,0.38056969303032706,-1.2170581527137643,-0.9258039037064876,-0.14917097259176826,-0.35932040998056053,-0.1135970355990511,1.322339816374368,0.29852566063121433,0.35721957951795047,0.19965337734518662
4.13,-4.391850198514424,-1.4141525134959727,0.37699448402149666,-1.2181841663882471,-0.9125494767041982,-0.1461962340571934,-0.3557080418337025,-0.1116083130268235,1.3284904833875046,0.29641640223837895,0.36522947292478536,0.1980851349767998
4.14,-4.400909170404007,-1.41559969059321,0.37345579671169243,-1.2192903718505392,-0.8992352058364972,-0.14324275710556156,-0.3520163198286599,-0.1096354534221965,1.3343076110727754,0.29427337627732253,0.3730895743531399,0.19648073580396552
4.15,-4.409834714360896,-1.417017440632604,0.3699544170722169,-1.2203769295429585,-0.8858644558481905,-0.14031087844551293,-0.34824676518927,-0.10767881979384908,1.339785329124061,0.29209677615649265,0.3807952229924392,0.1948398916997317
4.16,-4.4186262826622045,-1.4184059812725551,0.36649111562909387,-1.2214440035523166,-0.8724406501871504,-0.13740093285160304,-0.3444009457474768,-0.10573877803172993,1.3449177672352342,0.2898867952843358,0.38834175803210885,0.19316231453714672
4.17,-4.427283362113043,-1.4197655335095396,0.36306664699698743,-1.222491761638731,-0.8589672710043068,-0.13451325316430252,-0.34048047594332886,-0.10381569690705705,1.349699055100173,0.2876436270692996,0.3957245186615741,0.1914477161892596
4.18,-4.4358054746335425,-1.4210963216587664,0.3596817494131201,-1.2235203752644375,-0.8454478591536545,-0.13164817028999853,-0.33648701682498133,-0.1019099480723189,1.3541233224127533,0.28536746491982956,0.40293884407026104,0.18969580852911738
4.19,-4.44419217784589,-1.4223985733348385,0.35633714427119295,-1.224530019622603,-0.8318860141922473,-0.12880601320099272,-0.332422276048695,-0.10002190606127215,1.3581846988668471,0.2830585022443729,0.4099800734475944,0.18790630342976866
4.2,-4.452443065661361,-1.4236725194324125,0.3530335356553036,-1.2255208736661385,-0.8182853943802,-0.1259871089355029,-0.32828800787883605,-0.09815194828894402,1.361877314156339,0.2807169324513774,0.4168435459830002,0.1860789127642628
4.21,-4.460557768867347,-1.424918394106856,0.34977160987386546,-1.2264931201365117,-0.8046497166806903,-0.1231917825976625,-0.3240860131878768,-0.09630045505163087,1.365195297975101,0.27834294894928957,0.4235246008659035,0.18421334840564696
4.22,-4.4685359557143824,-1.4261364347549064,0.3465520349935267,-1.2274469455925594,-0.7909827567599552,-0.12042035735751933,-0.31981813945639515,-0.09446780952689804,1.3681327800170073,0.275936745146556,0.43001857728573023,0.18230932222697016
4.23,-4.4763773325031835,-1.427326881995333,0.3433754603730891,-1.2283825404393007,-0.7772883489872937,-0.11767315445103854,-0.3154862807730745,-0.09265439777358142,1.3706838899759366,0.27349851445162343,0.43632081443190535,0.1803665461012796
4.24,-4.484081644171674,-1.428489979649594,0.3402425161974274,-1.2293000989567493,-0.7635703864350671,-0.11495049318009976,-0.31109237783470456,-0.09086060873178581,1.3728427575457633,0.2710284502729388,0.4424266514938547,0.17838473190162502
4.25,-4.491648674882015,-1.4296259747224944,0.3371538130114077,-1.230199819328726,-0.7498328208786966,-0.11225269091249768,-0.3066384179461803,-0.08908683422288544,1.3746035124203675,0.2685267460189502,0.44833142766100365,0.17636359150105435
4.26,-4.499078248607639,-1.4307351173828489,0.3341099412538065,-1.2310819036716723,-0.7360796627966648,-0.10958006308194346,-0.3021264350205026,-0.0873334689495242,1.3759602842936212,0.26599359509810283,0.4540304821227777,0.1743028367726151
4.2700000000000005,-4.506370229720278,-1.4318176609441373,0.33111147079122993,-1.2319465580634612,-0.7223149813705168,-0.1069329231880638,-0.2975585095787781,-0.08560091049561591,1.3769072028594023,0.2634291909188446,0.4595191540686021,0.17220217958935619
4.28,-4.513524523576995,-1.4328738618451657,0.32815895045203247,-1.232793992572213,-0.7085429044848559,-0.10431158279639985,-0.2929367687502191,-0.08388955932634312,1.3774383978115876,0.2608337268896222,0.4647927826879029,0.1700613318243258
4.29,-4.520541077107213,-1.4339039796307258,0.3252529075602361,-1.233624421285105,-0.6947676187273513,-0.10171635153840963,-0.2882633862721438,-0.08219981878815852,1.3775479988440558,0.2582073964188831,0.46984670717010485,0.16788000535057296
4.3,-4.527419879399749,-1.434908276932252,0.32239384746944877,-1.2344380623371853,-0.6809933693887289,-0.09914753711146629,-0.28354058248997616,-0.08053209510878412,1.3772301356506764,0.2555503929150728,0.47467626670463386,0.1656579120411446
4.3100000000000005,-4.534160962289841,-1.4358870194484843,0.31958225309678395,-1.2352351379401862,-0.6672244604627786,-0.0966054452788574,-0.27877062435724564,-0.07888679739721116,1.3764789379253297,0.252862909786639,0.47927680048091525,0.16339476376908973
4.32,-4.54076440094618,-1.4368404759261226,0.31681858445677913,-1.236015874411336,-0.6534652546463495,-0.09409037986978719,-0.2739558254355876,-0.077264337643701,1.3752885353618907,0.25014514044202835,0.48364364768837453,0.16109027240745638
4.33,-4.547230314457942,-1.4377689181404905,0.3141032781953149,-1.2367805022021723,-0.639720173339354,-0.09160264277937569,-0.2690985458947429,-0.07566513071978398,1.3736530576542405,0.247397278289689,0.4877721475164373,0.15874414982929377
4.34,-4.5535588664218185,-1.4386726208761909,0.31143674712353414,-1.2375292559273532,-0.6259936966447661,-0.08914253396865779,-0.2642011925125589,-0.07408959437826024,1.3715666344962507,0.24461951673806642,0.49165763915452876,0.15635610790764956
4.3500000000000005,-4.559750265529043,-1.4395518619077672,0.3088193797517605,-1.2382623743934722,-0.6122903633686185,-0.08671035146458417,-0.25926621867498767,-0.07253814925319912,1.3690233955817968,0.24181204919560756,0.49529546179207473,0.15392585851557147
4.36,-4.565804766152427,-1.4404069219803624,0.30625153982341763,-1.2389801006278696,-0.5986147710200069,-0.0843063913600206,-0.25429612437608806,-0.07101121885993988,1.3660174706047572,0.23897506907075966,0.4986809546185003,0.15145311352610868
4.37,-4.571722668933386,-1.4412380847903767,0.30373356584894806,-1.2396826819074453,-0.5849715758110863,-0.08193094781374866,-0.24929345621802368,-0.06950922959509143,1.362542989259008,0.23610876977196946,0.5018094568232314,0.14893758481230907
4.38,-4.577504321368975,-1.4420456369661288,0.3012657706397322,-1.2403703697874722,-0.5713654926570757,-0.0795843130504661,-0.24426080741106448,-0.06803261073653144,1.3585940812384258,0.23321334470768465,0.5046763075956928,0.14637898424722123
4.39,-4.583150118398915,-1.4428298680485128,0.29884844084200723,-1.2410434201304072,-0.557801295176255,-0.07726677736078558,-0.23920081777358604,-0.06658179444340795,1.3541648762368854,0.23028898728635122,0.5072768461253105,0.1437770237038936
4.4,-4.588660502992625,-1.4435910704716597,0.2964818364707861,-1.2417020931347063,-0.5442838156899628,-0.07497862910123443,-0.23411617373206986,-0.06515721575613775,1.349249503948263,0.2273358909164159,0.5096064116015101,0.14113141505537324
4.41,-4.594035966736255,-1.4443295395435944,0.2941661904437762,-1.2423466533636351,-0.5308179452226005,-0.07272015469425752,-0.22900960832110281,-0.06375931259640732,1.3438420940664386,0.2243542490063273,0.5116603432137168,0.1384418701747107
4.42,-4.59927705041971,-1.445045573426896,0.2919017081152987,-1.2429773697740827,-0.5174086335016321,-0.07049163862821373,-0.22388390118337775,-0.0623885257671738,1.3379367762852827,0.2213442549645298,0.5134339801513559,0.13570810093495195
4.43,-4.604384344623687,-1.4457394731193576,0.28968856681020727,-1.2435945157453743,-0.5040608889575804,-0.06829336345737791,-0.21874187856969293,-0.061045298952661975,1.3315276802986746,0.21830610219947183,0.5149226616038532,0.13292981920914687
4.44,-4.6093584903067075,-1.4464115424346433,0.2875269153578071,-1.2441983691080831,-0.49077977872403133,-0.06612560980194049,-0.2135864133389531,-0.05973007871836755,1.3246089358004938,0.215239984119601,0.516121726760634,0.13010673687034358
4.45,-4.614200179392136,-1.4470620879829497,0.2854168736257737,-1.2447892121728446,-0.47757042863763033,-0.06398865634800743,-0.20842042495816815,-0.05844331451105522,1.3171746724846074,0.21214609413336116,0.5170265148111243,0.1272385657915887
4.46,-4.618910155355226,-1.4476914191516634,0.2833585320540723,-1.2453673317591674,-0.46443802323808603,-0.06188277984759982,-0.20324687950245385,-0.057185458658759014,1.3092190200449045,0.2090246256492035,0.5176323649447485,0.12432501784593358
4.47,-4.62348921381014,-1.4482998480860214,0.28135195118887585,-1.2459330192242473,-0.4513878057681664,-0.05980825511865495,-0.19806878965503164,-0.055956966370782624,1.3007361081752455,0.20587577207557078,0.5179346163509332,0.12136580490642318
4.48,-4.627938203096986,-1.448887689669769,0.27939716121648495,-1.2464865704917794,-0.43842507817370135,-0.057765355045025224,-0.19288921470722872,-0.05475829573769997,1.2917200665695212,0.20269972682091258,0.5179286082191029,0.11836063884610837
4.49,-4.63225802486884,-1.4494552615058203,0.2774941614972465,-1.2470282860807702,-0.42555520110358325,-0.05575435057647882,-0.18771126055847825,-0.05358990773135286,1.2821650249216008,0.19949668329367465,0.5176096797386835,0.11530923153803585
4.5,-4.6364496346787885,-1.4500028838969161,0.2756429200994722,-1.2475584711343521,-0.4127835939097637,-0.053775510728698794,-0.18253807971631916,-0.05245226620485488,1.272065112925363,0.1962668349023049,0.5169731700991009,0.11221129485525583
4.51,-4.6405140425669495,-1.4505308798262835,0.27384337333335806,-1.2480774354485944,-0.4001157346472586,-0.0518291025832851,-0.1773728712963957,-0.051345837892587065,1.2614144602746813,0.19301037505524904,0.51601441848978,0.10906654067081417
4.5200000000000005,-4.644452313647509,-1.4510395749382963,0.27209542528490316,-1.248585493501317,-0.38755716007413943,-0.04991539128775124,-0.17221888102245825,-0.05027109241020056,1.2502071966634345,0.18972749716095483,0.5147287641001463,0.10587468085776097
4.53,-4.648265568695745,-1.4515292975191314,0.27039894734982817,-1.249082964480901,-0.37511346565154513,-0.04803464005552849,-0.1670794012263625,-0.049228502254616835,1.2384374517854961,0.18641839462786847,0.5131115461196257,0.10263542728914343
4.54,-4.651954984735066,-1.4520003784774305,0.2687537777674952,-1.2495701723151056,-0.3627903055436734,-0.04618711016596189,-0.16195777084807067,-0.048218542804026154,1.226099355334745,0.18308326086443694,0.511158103737643,0.09934849183801087
4.55,-4.655521795624036,-1.4524531513249586,0.267159721154826,-1.2500474456998762,-0.3505933926177809,-0.044373060964312705,-0.15685737543565004,-0.04724169231788844,1.2131870370050581,0.17972228927910794,0.5088637761436245,0.09601358637741131
4.5600000000000005,-4.658967292643407,-1.452887952157262,0.26561654804022083,-1.2505151181281606,-0.3385284984441901,-0.042592749861758206,-0.1517816471452739,-0.04629843193693284,1.1996946264903108,0.17633567328032862,0.506223902526995,0.09263042278039335
4.57,-4.662292825083149,-1.4533051196343292,0.2641239943974782,-1.2509735279187189,-0.3266014532962789,-0.040846432335389427,-0.14673406474122108,-0.04538924568315805,1.1856162534843748,0.17292360627654346,0.5032338220771801,0.08919871292000314
4.58,-4.665499800829483,-1.4537049949612486,0.26268176117971276,-1.2514230182449384,-0.31481814615049375,-0.039134361928215844,-0.14171815359587617,-0.04451462045983379,1.170946047681133,0.16948628167620183,0.4998888739836053,0.08571816866929138
4.59,-4.668589686951909,-1.454087921868869,0.26128951385327537,-1.2518639371636455,-0.3031845246863356,-0.03745679024915938,-0.13673748568973018,-0.04367504605149686,1.1556781387744595,0.16602389288775032,0.4961843974356962,0.08218850190130667
4.6000000000000005,-4.6715640102902345,-1.4544542465944565,0.259946881931671,-1.2522966376439175,-0.29170659528636955,-0.0358139669730595,-0.13179567961137895,-0.04287101512395508,1.1398066564582279,0.1625366333196343,0.4921157316228787,0.07860942448909514
4.61,-4.6744243580416125,-1.4548043178623573,0.2586534585094782,-1.252721477595897,-0.2803904230362231,-0.034206139840671,-0.12689640055752446,-0.04210302322428572,1.123325730426319,0.15902469638030237,0.48767821573457715,0.07498064830570661
4.62,-4.6771723783475645,-1.4551384868646529,0.2574087997962682,-1.2531388198996039,-0.26924213172458344,-0.03263355465866291,-0.12204336033297455,-0.04137156878083503,1.1062294903726047,0.15548827547819966,0.48286718896021796,0.07130188522418823
4.63,-4.6798097808810155,-1.4554571072418219,0.2562124246505234,-1.2535490324337464,-0.2582679038431981,-0.03109645529962135,-0.11724031735064239,-0.040677153103218844,1.0885120659909617,0.15192756402177476,0.47767799048922643,0.06757284711758982
4.64,-4.682338337433323,-1.4557605350633982,0.2550638141135566,-1.2539524881045367,-0.2474739805868782,-0.029595083702046887,-0.11249107663154748,-0.04002028038232308,1.070167586975268,0.1483427554194734,0.47210595951102785,0.06379324585895896
4.65,-4.684759882501306,-1.4560491288086308,0.25396241094343,-1.2543495648745024,-0.23686666185349337,-0.02812967987035675,-0.10779948980481469,-0.0394014576903029,1.0511901830194055,0.14473404307974436,0.46614643521504756,0.05996279332134402
4.66,-4.687076313874283,-1.4563232493471412,0.2529076191488737,-1.2547406457912973,-0.22645230624397872,-0.026700481874882276,-0.10316945510767464,-0.038821194980582785,1.0315739838172382,0.1411016204110318,0.4597947567907114,0.05608120137779293
4.67,-4.6892895932210905,-1.456583259919585,0.25189880352320543,-1.255126119016517,-0.21623733106232423,-0.025307725851871132,-0.09860491738546376,-0.03828000508785667,1.0113131190626508,0.1374456808217852,0.45304626342744453,0.05214818190135451
4.68,-4.691401746677123,-1.4568295261183088,0.2509352891782486,-1.2555063778545108,-0.2062282123155863,-0.02395164600348698,-0.0941098680916242,-0.037778403728088605,0.9904017184495197,0.13376641772044962,0.44589629431467226,0.04816344676507711
4.69,-4.693414865431363,-1.4570624158680119,0.2500163610782519,-1.2558818207811928,-0.19643148471388372,-0.022632474597807817,-0.08968834528770406,-0.037316909498511186,0.9688339116717151,0.13006402451547272,0.4383401886418209,0.044126707842008894
4.7,-4.695331106313406,-1.4572822994064023,0.24914126357380803,-1.2562528514728564,-0.18685374167038926,-0.02135044196882807,-0.08534443364335684,-0.03689604387762735,0.9466038284231209,0.12633869461530156,0.4303732855983151,0.040037677005198
4.71,-4.697152692380496,-1.4574895492648587,0.2483091999357724,-1.2566198788349867,-0.17750163530134433,-0.02010577651645762,-0.08108226443634214,-0.036516331225209364,0.9237055983976052,0.12259062142838162,0.421990924373581,0.03589606612769147
4.72,-4.698881913504556,-1.457684540249088,0.24751933188918257,-1.2569833170310722,-0.16838187642604785,-0.018898704706521552,-0.07690601555252485,-0.036178298782298945,0.9001333512890524,0.11881999836316215,0.4131884441570432,0.03170158708254012
4.73,-4.700521126959215,-1.4578676494197846,0.24677077914717668,-1.2573435855114186,-0.1595012345668616,-0.017729451070760627,-0.07281991148587588,-0.035882476671207475,0.8758812167913312,0.11502701882808752,0.40396118413812754,0.027453951742790306
4.74,-4.702072758006842,-1.4580392560732907,0.24606261894491294,-1.2577011090419608,-0.15086653794920624,-0.01659823820683115,-0.06882822333847219,-0.035629397895515,0.8509433245983251,0.11121187623160678,0.3943044835062601,0.023152871981492185
4.75,-4.703539300485576,-1.458199741722254,0.2453938855734879,-1.2580563177330764,-0.14248467350156613,-0.015505286778305316,-0.064935268820496,-0.03541959834007247,0.8253138044039048,0.10737476398216605,0.38421368145086576,0.018798059671692346
4.76,-4.704923317396355,-1.458349490076288,0.24476356991385598,-1.2584096470683965,-0.13436258685548763,-0.014450815514669646,-0.061145412250235454,-0.035253616770999474,0.7989867859019455,0.10351587548821062,0.3736841171613701,0.014389226686438938
4.7700000000000005,-4.7062274414899505,-1.45848888702263,0.2441706189707482,-1.2587615379336217,-0.12650728234557373,-0.01343504121132788,-0.0574630645540844,-0.03513199483568519,0.7719563987863358,0.09963540415819194,0.36271112982719833,0.009926084898783216
4.78,-4.70745437585399,-1.4586183206068015,0.24361393540659096,-1.2591124366453315,-0.11892582300949339,-0.012458178729598202,-0.05389268326654238,-0.03505527706278855,0.744216772750935,0.09573354340055129,0.3512900586377761,0.005408346181769108
4.79,-4.7086068945,-1.4587381810132665,0.2430923770754253,-1.2594627949797987,-0.11162533058797441,-0.01152044099671401,-0.050438772530215045,-0.03502401086223739,0.7157620374896281,0.09181048662373925,0.3394162427825294,0.0008357224084480919
4.8,-4.709687842950422,-1.4588488605460905,0.24260475655682562,-1.259813070201801,-0.10461298552480747,-0.01062203900582559,-0.04710588309581337,-0.035038746525230424,0.6865863226962938,0.08786642723620153,0.3270850214508829,-0.0037920745481323515
